trial_num,current_block,trial_tag_bool,current_rule,deviant,current_forced,feedback,prediction_state,prediction_targets_end,iti_time,block.thisRepN,block.thisTrialN,block.thisN,block.thisIndex,E_catch.thisRepN,E_catch.thisTrialN,E_catch.thisN,E_catch.thisIndex,P_catch.thisRepN,P_catch.thisTrialN,P_catch.thisN,P_catch.thisIndex,welcome.started,scannerPulse.started,waitScanner_Start,waitScanner_End,scannerPulse.keys,scannerPulse.rt,Count1.started,Count1.stopped,Count2.started,Count2.stopped,Count3.started,Count3.stopped,E_fixation.started,E_ITI.started,E_state.started,E_action_L.started,E_action_R.started,E_fixation.stopped,E_key_resp.started,Response,RT,ResponseTime,current_state,action_side,E_key_resp.keys,E_key_resp.rt,state_side,correct_resp,state_choice,P_key_resp.keys,hidden_side,P_fixation.started,P_ITI.started,P_state.started,P_action.started,P_state_choice_L.started,P_state_choice_R.started,P_key_resp.started,P_fixation.stopped,P_feedback_img.started,Accuracy,P_choice_box.started,P_key_resp.rt,participant,visit,fMRIsess,date,expName,psychopyVersion,frameRate,
,,,,,,,,,,,,,,,,,,,,,,11.988490900024772,11.988490900024772,11.983704499900341,511.15973259997554,"['5', '5', '5', '5', '5']","[493.15245039993897, 494.6524632999208, 496.15445999987423, 497.65245070005767, 499.1524501000531]",,,,,,,,,,,,,,,,,,,,,,,,,,,,,,,,,,,,,,1,1,1,2025-02-14_10h29.17.971,EP_task,2023.1.2,60.821516258809034,
0,1,0,1,0.0,0.0,None,None,None,4,0,0,0,0,0,0,0,0,,,,,,,,,,,511.1737774000503,512.1737712000031,512.1737712000031,513.1737579000182,513.1737579000182,514.1805511000566,514.1805511000566,0.016636600019410253,518.1841855999082,518.1841855999082,518.1841855999082,518.1841855999082,518.4238823000342,2,4.4729067999869585,522.9406252000481,2,2,2,4.4729067999869585,,,,,,,,,,,,,,,,,,1,1,1,2025-02-14_10h29.17.971,EP_task,2023.1.2,60.821516258809034,
0,1,0,1,0.0,0.0,None,None,None,4,0,0,0,0,,,,,0,0,0,0,,,,,,,,,,,,,,,,,,,,,,,None,1,,,2,0,0,None,,,,,,,,,,,,,,1,1,1,2025-02-14_10h29.17.971,EP_task,2023.1.2,60.821516258809034,
0,1,0,1,0.0,0.0,None,None,None,4,0,0,0,0,,,,,,,,,,,,,,,,,,,,,,,,,,,,,,,,,,,,,,,,,,,,,,,,,,,,1,1,1,2025-02-14_10h29.17.971,EP_task,2023.1.2,60.821516258809034,
1,1,0,1,0.0,0.0,None,None,None,3,0,1,1,1,0,0,0,0,,,,,,,,,,,,,,,,,524.5540560998488,0.11817099992185831,529.0532802999951,529.0532802999951,529.0532802999951,529.0532802999951,529.0532802999951,1,2.6583706000819802,531.7576663999353,1,1,1,2.6583706000819802,,,,,,,,,,,,,,,,,,1,1,1,2025-02-14_10h29.17.971,EP_task,2023.1.2,60.821516258809034,
1,1,0,1,0.0,0.0,None,None,None,3,0,1,1,1,,,,,0,0,0,0,,,,,,,,,,,,,,,,,,,,,,,None,2,,,1,0,0,None,,,,,,,,,,,,,,1,1,1,2025-02-14_10h29.17.971,EP_task,2023.1.2,60.821516258809034,
1,1,0,1,0.0,0.0,None,None,None,3,0,1,1,1,,,,,,,,,,,,,,,,,,,,,,,,,,,,,,,,,,,,,,,,,,,,,,,,,,,,1,1,1,2025-02-14_10h29.17.971,EP_task,2023.1.2,60.821516258809034,
2,1,0,1,0.0,0.0,None,None,None,1,0,2,2,2,0,0,0,0,,,,,,,,,,,,,,,,,533.370288599981,0.11822649999521673,535.8638289000373,535.8638289000373,535.8638289000373,535.8638289000373,535.8638289000373,1,2.755941200070083,538.6579318000004,2,2,1,2.755941200070083,,,,,,,,,,,,,,,,,,1,1,1,2025-02-14_10h29.17.971,EP_task,2023.1.2,60.821516258809034,
2,1,0,1,0.0,0.0,None,None,None,1,0,2,2,2,,,,,0,0,0,0,,,,,,,,,,,,,,,,,,,,,,,None,1,,,2,0,0,None,,,,,,,,,,,,,,1,1,1,2025-02-14_10h29.17.971,EP_task,2023.1.2,60.821516258809034,
2,1,0,1,0.0,0.0,None,None,None,1,0,2,2,2,,,,,,,,,,,,,,,,,,,,,,,,,,,,,,,,,,,,,,,,,,,,,,,,,,,,1,1,1,2025-02-14_10h29.17.971,EP_task,2023.1.2,60.821516258809034,
3,1,0,1,0.0,0.0,None,None,None,2,0,3,3,3,0,0,0,0,,,,,,,,,,,,,,,,,540.2873770999722,0.11737299989908934,543.7983635000419,543.7983635000419,543.7983635000419,543.7983635000419,543.7983635000419,2,2.11669689998962,545.9577144999057,3,2,2,2.11669689998962,,,,,,,,,,,,,,,,,,1,1,1,2025-02-14_10h29.17.971,EP_task,2023.1.2,60.821516258809034,
3,1,0,1,0.0,0.0,None,None,None,2,0,3,3,3,,,,,0,0,0,0,,,,,,,,,,,,,,,,,,,,,,,None,2,,,2,0,0,None,,,,,,,,,,,,,,1,1,1,2025-02-14_10h29.17.971,EP_task,2023.1.2,60.821516258809034,
3,1,0,1,0.0,0.0,None,None,None,2,0,3,3,3,,,,,,,,,,,,,,,,,,,,,,,,,,,,,,,,,,,,,,,,,,,,,,,,,,,,1,1,1,2025-02-14_10h29.17.971,EP_task,2023.1.2,60.821516258809034,
4,1,0,1,0.0,1.0,None,None,None,3,0,4,4,4,0,0,0,0,,,,,,,,,,,,,,,,,547.5865873999428,0.11706500011496246,552.096711399965,552.096711399965,552.096711399965,552.096711399965,552.096711399965,2,2.1941078999079764,554.3249053000472,1,1,2,2.1941078999079764,,,,,1,,,,,,,,,,,,,1,1,1,2025-02-14_10h29.17.971,EP_task,2023.1.2,60.821516258809034,
4,1,0,1,0.0,1.0,None,None,None,3,0,4,4,4,,,,,0,0,0,0,,,,,,,,,,,,,,,,,,,,,,,None,1,,,1,0,0,None,,,,,,,,,,,,,,1,1,1,2025-02-14_10h29.17.971,EP_task,2023.1.2,60.821516258809034,
4,1,0,1,0.0,1.0,None,None,None,3,0,4,4,4,,,,,,,,,,,,,,,,,,,,,,,,,,,,,,,,,,,,,,,,,,,,,,,,,,,,1,1,1,2025-02-14_10h29.17.971,EP_task,2023.1.2,60.821516258809034,
5,1,0,1,0.0,0.0,None,None,None,1,0,5,5,5,0,0,0,0,,,,,,,,,,,,,,,,,555.937472499907,0.11700309999287128,558.4322430999018,558.4322430999018,558.4322430999018,558.4322430999018,558.4322430999018,1,2.126624300144613,560.6083885000553,3,1,1,2.126624300144613,,,,,,,,,,,,,,,,,,1,1,1,2025-02-14_10h29.17.971,EP_task,2023.1.2,60.821516258809034,
5,1,0,1,0.0,0.0,None,None,None,1,0,5,5,5,,,,,0,0,0,0,,,,,,,,,,,,,,,,,,,,,,,None,2,,,1,0,0,None,,,,,,,,,,,,,,1,1,1,2025-02-14_10h29.17.971,EP_task,2023.1.2,60.821516258809034,
5,1,0,1,0.0,0.0,None,None,None,1,0,5,5,5,,,,,,,,,,,,,,,,,,,,,,,,,,,,,,,,,,,,,,,,,,,,,,,,,,,,1,1,1,2025-02-14_10h29.17.971,EP_task,2023.1.2,60.821516258809034,
6,1,0,1,0.0,0.0,None,None,None,2,0,6,6,6,0,0,0,0,,,,,,,,,,,,,,,,,562.2215348000173,0.11752140009775758,565.715655699838,565.715655699838,565.715655699838,565.715655699838,565.715655699838,2,1.668911699904129,567.4251774998847,1,2,2,1.668911699904129,,,,,,,,,,,,,,,,,,1,1,1,2025-02-14_10h29.17.971,EP_task,2023.1.2,60.821516258809034,
6,1,0,1,0.0,0.0,None,None,None,2,0,6,6,6,,,,,0,0,0,0,,,,,,,,,,,,,,,,,,,,,,,None,1,,,2,0,0,None,,,,,,,,,,,,,,1,1,1,2025-02-14_10h29.17.971,EP_task,2023.1.2,60.821516258809034,
6,1,0,1,0.0,0.0,None,None,None,2,0,6,6,6,,,,,,,,,,,,,,,,,,,,,,,,,,,,,,,,,,,,,,,,,,,,,,,,,,,,1,1,1,2025-02-14_10h29.17.971,EP_task,2023.1.2,60.821516258809034,
7,1,1,1,None,None,0.0,3.0,1.0,2,0,7,7,7,0,0,0,0,,,,,,,,,,,,,,,,,,,,,,,,,,,2,2,None,,,,,,,,,,,,,,,,,,,1,1,1,2025-02-14_10h29.17.971,EP_task,2023.1.2,60.821516258809034,
7,1,1,1,None,None,0.0,3.0,1.0,2,0,7,7,7,,,,,0,0,0,0,,,,,,,,,,,,,,,,,,,,2,2.563497500028461,575.175501700025,3.0,2,,,2,2,1,2,,569.0414878998417,0.0031475999858230352,572.5637212998699,572.5637212998699,572.5637212998699,572.5637212998699,572.5637212998699,572.5637212998699,572.5637212998699,1,575.175501700025,2.563497500028461,1,1,1,2025-02-14_10h29.17.971,EP_task,2023.1.2,60.821516258809034,
7,1,1,1,None,None,0.0,3.0,1.0,2,0,7,7,7,,,,,,,,,,,,,,,,,,,,,,,,,,,,,,,,,,,,,,,,,,,,,,,,,,,,1,1,1,2025-02-14_10h29.17.971,EP_task,2023.1.2,60.821516258809034,
7,1,1,1,None,None,1.0,3.0,2.0,1,0,8,8,8,0,0,0,0,,,,,,,,,,,,,,,,,,,,,,,,,,,2,1,None,,,,,,,,,,,,,,,,,,,1,1,1,2025-02-14_10h29.17.971,EP_task,2023.1.2,60.821516258809034,
7,1,1,1,None,None,1.0,3.0,2.0,1,0,8,8,8,,,,,0,0,0,0,,,,,,,,,,,,,,,,,,,,1,2.1428658000659198,580.2254025998991,3.0,2,,,2,1,2,1,,576.8530339999124,0.057804400101304054,577.8509873000439,577.8509873000439,577.8509873000439,577.8509873000439,578.0421996999066,577.8509873000439,577.8509873000439,1,580.2254025998991,2.1428658000659198,1,1,1,2025-02-14_10h29.17.971,EP_task,2023.1.2,60.821516258809034,
7,1,1,1,None,None,1.0,3.0,2.0,1,0,8,8,8,,,,,,,,,,,,,,,,,,,,,,,,,,,,,,,,,,,,,,,,,,,,,,,,,,,,1,1,1,2025-02-14_10h29.17.971,EP_task,2023.1.2,60.821516258809034,
8,2,0,1,0.0,0.0,None,None,None,2,0,9,9,9,0,0,0,0,,,,,,,,,,,,,,,,,581.8528507000301,0.11450179992243648,583.8632515999489,583.8632515999489,583.8632515999489,583.8632515999489,583.992203499889,2,2.347437599906698,586.3756691999733,2,2,2,2.347437599906698,,,,,,,,,,,,,,,,,,1,1,1,2025-02-14_10h29.17.971,EP_task,2023.1.2,60.821516258809034,
8,2,0,1,0.0,0.0,None,None,None,2,0,9,9,9,,,,,0,0,0,0,,,,,,,,,,,,,,,,,,,,,,,None,2,,,2,1,2,None,,,,,,,,,,,,,,1,1,1,2025-02-14_10h29.17.971,EP_task,2023.1.2,60.821516258809034,
8,2,0,1,0.0,0.0,None,None,None,2,0,9,9,9,,,,,,,,,,,,,,,,,,,,,,,,,,,,,,,,,,,,,,,,,,,,,,,,,,,,1,1,1,2025-02-14_10h29.17.971,EP_task,2023.1.2,60.821516258809034,
9,2,0,1,0.0,0.0,None,None,None,2,0,10,10,10,0,0,0,0,,,,,,,,,,,,,,,,,588.0444028999191,0.11687020002864301,591.5424535998609,591.5424535998609,591.5424535998609,591.5424535998609,591.5424535998609,1,2.504941999912262,594.0926445999648,1,1,1,2.504941999912262,,,,,,,,,,,,,,,,,,1,1,1,2025-02-14_10h29.17.971,EP_task,2023.1.2,60.821516258809034,
9,2,0,1,0.0,0.0,None,None,None,2,0,10,10,10,,,,,0,0,0,0,,,,,,,,,,,,,,,,,,,,,,,None,2,,,1,1,2,None,,,,,,,,,,,,,,1,1,1,2025-02-14_10h29.17.971,EP_task,2023.1.2,60.821516258809034,
9,2,0,1,0.0,0.0,None,None,None,2,0,10,10,10,,,,,,,,,,,,,,,,,,,,,,,,,,,,,,,,,,,,,,,,,,,,,,,,,,,,1,1,1,2025-02-14_10h29.17.971,EP_task,2023.1.2,60.821516258809034,
10,2,0,1,1.0,0.0,None,None,None,4,0,11,11,11,0,0,0,0,,,,,,,,,,,,,,,,,595.7637561999727,0.12041889992542565,601.2594752998557,601.2594752998557,601.2594752998557,601.2594752998557,601.2594752998557,2,2.775560500100255,604.07601780002,2,2,2,2.775560500100255,,,,,,,,,,,,,,,,,,1,1,1,2025-02-14_10h29.17.971,EP_task,2023.1.2,60.821516258809034,
10,2,0,1,1.0,0.0,None,None,None,4,0,11,11,11,,,,,0,0,0,0,,,,,,,,,,,,,,,,,,,,,,,None,1,,,2,1,2,None,,,,,,,,,,,,,,1,1,1,2025-02-14_10h29.17.971,EP_task,2023.1.2,60.821516258809034,
10,2,0,1,1.0,0.0,None,None,None,4,0,11,11,11,,,,,,,,,,,,,,,,,,,,,,,,,,,,,,,,,,,,,,,,,,,,,,,,,,,,1,1,1,2025-02-14_10h29.17.971,EP_task,2023.1.2,60.821516258809034,
11,2,0,1,0.0,0.0,None,None,None,1,0,12,12,12,0,0,0,0,,,,,,,,,,,,,,,,,605.761521999957,0.11885069985873997,608.2761847998481,608.2761847998481,608.2761847998481,608.2761847998481,608.2761847998481,1,2.556372799910605,610.8762008999474,3,2,1,2.556372799910605,,,,,,,,,,,,,,,,,,1,1,1,2025-02-14_10h29.17.971,EP_task,2023.1.2,60.821516258809034,
11,2,0,1,0.0,0.0,None,None,None,1,0,12,12,12,,,,,0,0,0,0,,,,,,,,,,,,,,,,,,,,,,,None,2,,,2,1,2,None,,,,,,,,,,,,,,1,1,1,2025-02-14_10h29.17.971,EP_task,2023.1.2,60.821516258809034,
11,2,0,1,0.0,0.0,None,None,None,1,0,12,12,12,,,,,,,,,,,,,,,,,,,,,,,,,,,,,,,,,,,,,,,,,,,,,,,,,,,,1,1,1,2025-02-14_10h29.17.971,EP_task,2023.1.2,60.821516258809034,
12,2,0,1,0.0,1.0,None,None,None,1,0,13,13,13,0,0,0,0,,,,,,,,,,,,,,,,,612.5597752998583,0.11689359997399151,615.0761758999433,615.0761758999433,615.0761758999433,615.0761758999433,615.0761758999433,2,1.7735152000095695,616.8932378999889,2,1,2,1.7735152000095695,,,,,1,,,,,,,,,,,,,1,1,1,2025-02-14_10h29.17.971,EP_task,2023.1.2,60.821516258809034,
12,2,0,1,0.0,1.0,None,None,None,1,0,13,13,13,,,,,0,0,0,0,,,,,,,,,,,,,,,,,,,,,,,None,2,,,1,1,2,None,,,,,,,,,,,,,,1,1,1,2025-02-14_10h29.17.971,EP_task,2023.1.2,60.821516258809034,
12,2,0,1,0.0,1.0,None,None,None,1,0,13,13,13,,,,,,,,,,,,,,,,,,,,,,,,,,,,,,,,,,,,,,,,,,,,,,,,,,,,1,1,1,2025-02-14_10h29.17.971,EP_task,2023.1.2,60.821516258809034,
13,2,0,1,0.0,0.0,None,None,None,5,0,14,14,14,0,0,0,0,,,,,,,,,,,,,,,,,618.5594240999781,0.11568399984389544,625.0657319000456,625.0657319000456,625.0657319000456,625.0657319000456,625.0657319000456,1,2.5658889999613166,627.6764137998689,3,2,1,2.5658889999613166,,,,,,,,,,,,,,,,,,1,1,1,2025-02-14_10h29.17.971,EP_task,2023.1.2,60.821516258809034,
13,2,0,1,0.0,0.0,None,None,None,5,0,14,14,14,,,,,0,0,0,0,,,,,,,,,,,,,,,,,,,,,,,None,1,,,2,1,2,None,,,,,,,,,,,,,,1,1,1,2025-02-14_10h29.17.971,EP_task,2023.1.2,60.821516258809034,
13,2,0,1,0.0,0.0,None,None,None,5,0,14,14,14,,,,,,,,,,,,,,,,,,,,,,,,,,,,,,,,,,,,,,,,,,,,,,,,,,,,1,1,1,2025-02-14_10h29.17.971,EP_task,2023.1.2,60.821516258809034,
14,2,1,1,None,None,0.0,1.0,3.0,4,0,15,15,15,0,0,0,0,,,,,,,,,,,,,,,,,,,,,,,,,,,2,1,None,,,,,,,,,,,,,,,,,,,1,1,1,2025-02-14_10h29.17.971,EP_task,2023.1.2,60.821516258809034,
14,2,1,1,None,None,0.0,1.0,3.0,4,0,15,15,15,,,,,0,0,0,0,,,,,,,,,,,,,,,,,,,,,,,1.0,2,,,1,2,2,None,,629.4109024999198,0.06202289997600019,634.913267799886,634.913267799886,634.913267799886,634.913267799886,634.913267799886,634.913267799886,634.913267799886,,,,1,1,1,2025-02-14_10h29.17.971,EP_task,2023.1.2,60.821516258809034,
14,2,1,1,None,None,0.0,1.0,3.0,4,0,15,15,15,,,,,1,0,1,0,,,,,,,,,,,,,,,,,,,,1,1.1283646000083536,643.7937851999886,1.0,2,,,1,2,2,1,,638.4375563999638,0.06341679999604821,642.4384810999036,642.4384810999036,642.4384810999036,642.4384810999036,642.6270242999308,642.4384810999036,642.4384810999036,0,643.7937851999886,1.1283646000083536,1,1,1,2025-02-14_10h29.17.971,EP_task,2023.1.2,60.821516258809034,
14,2,1,1,None,None,0.0,1.0,3.0,4,0,15,15,15,,,,,,,,,,,,,,,,,,,,,,,,,,,,,,,,,,,,,,,,,,,,,,,,,,,,1,1,1,2025-02-14_10h29.17.971,EP_task,2023.1.2,60.821516258809034,
14,2,1,1,None,None,1.0,1.0,2.0,3,0,16,16,16,0,0,0,0,,,,,,,,,,,,,,,,,,,,,,,,,,,2,2,None,,,,,,,,,,,,,,,,,,,1,1,1,2025-02-14_10h29.17.971,EP_task,2023.1.2,60.821516258809034,
14,2,1,1,None,None,1.0,1.0,2.0,3,0,16,16,16,,,,,0,0,0,0,,,,,,,,,,,,,,,,,,,,2,4.5470716001000255,653.2608034999575,1.0,1,,,2,2,2,2,,645.4789801998995,0.061893600039184093,648.4819426999893,648.4819426999893,648.4819426999893,648.4819426999893,648.6771042000037,648.4819426999893,648.4819426999893,1,653.2608034999575,4.5470716001000255,1,1,1,2025-02-14_10h29.17.971,EP_task,2023.1.2,60.821516258809034,
14,2,1,1,None,None,1.0,1.0,2.0,3,0,16,16,16,,,,,,,,,,,,,,,,,,,,,,,,,,,,,,,,,,,,,,,,,,,,,,,,,,,,1,1,1,2025-02-14_10h29.17.971,EP_task,2023.1.2,60.821516258809034,
15,3,0,1,0.0,0.0,None,None,None,2,0,17,17,17,0,0,0,0,,,,,,,,,,,,,,,,,654.8928725000005,0.11736369994468987,656.9026868999936,656.9026868999936,656.9026868999936,656.9026868999936,657.0275528999045,1,2.5931238997727633,659.6609348999336,2,2,1,2.5931238997727633,,,,,,,,,,,,,,,,,,1,1,1,2025-02-14_10h29.17.971,EP_task,2023.1.2,60.821516258809034,
15,3,0,1,0.0,0.0,None,None,None,2,0,17,17,17,,,,,0,0,0,0,,,,,,,,,,,,,,,,,,,,,,,None,1,,,2,2,2,None,,,,,,,,,,,,,,1,1,1,2025-02-14_10h29.17.971,EP_task,2023.1.2,60.821516258809034,
15,3,0,1,0.0,0.0,None,None,None,2,0,17,17,17,,,,,,,,,,,,,,,,,,,,,,,,,,,,,,,,,,,,,,,,,,,,,,,,,,,,1,1,1,2025-02-14_10h29.17.971,EP_task,2023.1.2,60.821516258809034,
16,3,0,1,0.0,0.0,None,None,None,2,0,18,18,18,0,0,0,0,,,,,,,,,,,,,,,,,661.3318608999252,0.11741189984604716,664.8277094999794,664.8277094999794,664.8277094999794,664.8277094999794,664.8277094999794,2,1.6612331999931484,666.5277734000701,3,1,2,1.6612331999931484,,,,,,,,,,,,,,,,,,1,1,1,2025-02-14_10h29.17.971,EP_task,2023.1.2,60.821516258809034,
16,3,0,1,0.0,0.0,None,None,None,2,0,18,18,18,,,,,0,0,0,0,,,,,,,,,,,,,,,,,,,,,,,None,1,,,1,2,2,None,,,,,,,,,,,,,,1,1,1,2025-02-14_10h29.17.971,EP_task,2023.1.2,60.821516258809034,
16,3,0,1,0.0,0.0,None,None,None,2,0,18,18,18,,,,,,,,,,,,,,,,,,,,,,,,,,,,,,,,,,,,,,,,,,,,,,,,,,,,1,1,1,2025-02-14_10h29.17.971,EP_task,2023.1.2,60.821516258809034,
17,3,0,1,0.0,1.0,None,None,None,4,0,19,19,19,0,0,0,0,,,,,,,,,,,,,,,,,668.1990229999647,0.11954620014876127,673.7038765999023,673.7038765999023,673.7038765999023,673.7038765999023,673.7038765999023,1,1.840111600002274,675.5775965999346,2,2,1,1.840111600002274,,,,,2,,,,,,,,,,,,,1,1,1,2025-02-14_10h29.17.971,EP_task,2023.1.2,60.821516258809034,
17,3,0,1,0.0,1.0,None,None,None,4,0,19,19,19,,,,,0,0,0,0,,,,,,,,,,,,,,,,,,,,,,,None,2,,,2,2,2,None,,,,,,,,,,,,,,1,1,1,2025-02-14_10h29.17.971,EP_task,2023.1.2,60.821516258809034,
17,3,0,1,0.0,1.0,None,None,None,4,0,19,19,19,,,,,,,,,,,,,,,,,,,,,,,,,,,,,,,,,,,,,,,,,,,,,,,,,,,,1,1,1,2025-02-14_10h29.17.971,EP_task,2023.1.2,60.821516258809034,
18,3,0,1,0.0,0.0,None,None,None,1,0,20,20,20,0,0,0,0,,,,,,,,,,,,,,,,,677.2510034998413,0.1199481999501586,679.7472120998427,679.7472120998427,679.7472120998427,679.7472120998427,679.7472120998427,2,2.9353089998476207,682.7281603000592,3,1,2,2.9353089998476207,,,,,,,,,,,,,,,,,,1,1,1,2025-02-14_10h29.17.971,EP_task,2023.1.2,60.821516258809034,
18,3,0,1,0.0,0.0,None,None,None,1,0,20,20,20,,,,,0,0,0,0,,,,,,,,,,,,,,,,,,,,,,,None,1,,,1,2,2,None,,,,,,,,,,,,,,1,1,1,2025-02-14_10h29.17.971,EP_task,2023.1.2,60.821516258809034,
18,3,0,1,0.0,0.0,None,None,None,1,0,20,20,20,,,,,,,,,,,,,,,,,,,,,,,,,,,,,,,,,,,,,,,,,,,,,,,,,,,,1,1,1,2025-02-14_10h29.17.971,EP_task,2023.1.2,60.821516258809034,
19,3,0,1,1.0,0.0,None,None,None,4,0,21,21,21,0,0,0,0,,,,,,,,,,,,,,,,,684.4014953998849,0.12000179989263415,689.8982038998511,689.8982038998511,689.8982038998511,689.8982038998511,689.8982038998511,,,,2,1,1,3.3718068001326174,,,,,,,,,,,,,,,,,,1,1,1,2025-02-14_10h29.17.971,EP_task,2023.1.2,60.821516258809034,
19,3,0,1,1.0,0.0,None,None,None,4,0,21,21,21,1,0,1,0,,,,,,,,,,,,,,,,,693.4059945000336,0.11912430007942021,697.3997418000363,697.3997418000363,697.3997418000363,697.3997418000363,697.5455080999527,1,2.3399674999527633,699.9284985999111,2,1,1,2.3399674999527633,,,,,,,,,,,,,,,,,,1,1,1,2025-02-14_10h29.17.971,EP_task,2023.1.2,60.821516258809034,
19,3,0,1,1.0,0.0,None,None,None,4,0,21,21,21,,,,,0,0,0,0,,,,,,,,,,,,,,,,,,,,,,,None,1,,,1,2,2,None,,,,,,,,,,,,,,1,1,1,2025-02-14_10h29.17.971,EP_task,2023.1.2,60.821516258809034,
19,3,0,1,1.0,0.0,None,None,None,4,0,21,21,21,,,,,,,,,,,,,,,,,,,,,,,,,,,,,,,,,,,,,,,,,,,,,,,,,,,,1,1,1,2025-02-14_10h29.17.971,EP_task,2023.1.2,60.821516258809034,
20,3,0,1,0.0,0.0,None,None,None,1,0,22,22,22,0,0,0,0,,,,,,,,,,,,,,,,,701.6060605000239,0.12578630005009472,704.0999008999206,704.0999008999206,704.0999008999206,704.0999008999206,704.0999008999206,,,,3,2,None,,,,,,,,,,,,,,,,,,,1,1,1,2025-02-14_10h29.17.971,EP_task,2023.1.2,60.821516258809034,
20,3,0,1,0.0,0.0,None,None,None,1,0,22,22,22,1,0,1,0,,,,,,,,,,,,,,,,,707.6099594000261,0.12287329998798668,708.6032604998909,708.6032604998909,708.6032604998909,708.6032604998909,708.7459056999069,1,0.3238295998889953,709.1120164999738,3,2,1,0.3238295998889953,,,,,,,,,,,,,,,,,,1,1,1,2025-02-14_10h29.17.971,EP_task,2023.1.2,60.821516258809034,
20,3,0,1,0.0,0.0,None,None,None,1,0,22,22,22,,,,,0,0,0,0,,,,,,,,,,,,,,,,,,,,,,,None,1,,,2,2,2,None,,,,,,,,,,,,,,1,1,1,2025-02-14_10h29.17.971,EP_task,2023.1.2,60.821516258809034,
20,3,0,1,0.0,0.0,None,None,None,1,0,22,22,22,,,,,,,,,,,,,,,,,,,,,,,,,,,,,,,,,,,,,,,,,,,,,,,,,,,,1,1,1,2025-02-14_10h29.17.971,EP_task,2023.1.2,60.821516258809034,
21,3,0,1,0.0,0.0,None,None,None,3,0,23,23,23,0,0,0,0,,,,,,,,,,,,,,,,,710.7899243999273,0.12363829999230802,715.2841532998718,715.2841532998718,715.2841532998718,715.2841532998718,715.2841532998718,,,,2,1,None,,,,,,,,,,,,,,,,,,,1,1,1,2025-02-14_10h29.17.971,EP_task,2023.1.2,60.821516258809034,
21,3,0,1,0.0,0.0,None,None,None,3,0,23,23,23,1,0,1,0,,,,,,,,,,,,,,,,,718.793686500052,0.12170629994943738,721.7852551999968,721.7852551999968,721.7852551999968,721.7852551999968,721.9297855000477,1,1.1819809000007808,723.1458016000688,2,1,1,1.1819809000007808,,,,,,,,,,,,,,,,,,1,1,1,2025-02-14_10h29.17.971,EP_task,2023.1.2,60.821516258809034,
21,3,0,1,0.0,0.0,None,None,None,3,0,23,23,23,,,,,0,0,0,0,,,,,,,,,,,,,,,,,,,,,,,None,1,,,1,2,2,None,,,,,,,,,,,,,,1,1,1,2025-02-14_10h29.17.971,EP_task,2023.1.2,60.821516258809034,
21,3,0,1,0.0,0.0,None,None,None,3,0,23,23,23,,,,,,,,,,,,,,,,,,,,,,,,,,,,,,,,,,,,,,,,,,,,,,,,,,,,1,1,1,2025-02-14_10h29.17.971,EP_task,2023.1.2,60.821516258809034,
22,3,1,1,None,None,0.0,2.0,3.0,4,0,24,24,24,0,0,0,0,,,,,,,,,,,,,,,,,,,,,,,,,,,1,2,None,,,,,,,,,,,,,,,,,,,1,1,1,2025-02-14_10h29.17.971,EP_task,2023.1.2,60.821516258809034,
22,3,1,1,None,None,0.0,2.0,3.0,4,0,24,24,24,,,,,0,0,0,0,,,,,,,,,,,,,,,,,,,,,,,2.0,2,,,2,1,2,None,,724.8854447999038,0.06289279996417463,730.3912903999444,730.3912903999444,730.3912903999444,730.3912903999444,730.3912903999444,730.3912903999444,730.3912903999444,,,,1,1,1,2025-02-14_10h29.17.971,EP_task,2023.1.2,60.821516258809034,
22,3,1,1,None,None,0.0,2.0,3.0,4,0,24,24,24,,,,,1,0,1,0,,,,,,,,,,,,,,,,,,,,2,1.7889409998897463,739.9296140999068,2.0,2,,,2,1,1,2,,733.9029544999357,0.059966599801555276,737.9038150999695,737.9038150999695,737.9038150999695,737.9038150999695,738.096181999892,737.9038150999695,737.9038150999695,0,739.9296140999068,1.7889409998897463,1,1,1,2025-02-14_10h29.17.971,EP_task,2023.1.2,60.821516258809034,
22,3,1,1,None,None,0.0,2.0,3.0,4,0,24,24,24,,,,,,,,,,,,,,,,,,,,,,,,,,,,,,,,,,,,,,,,,,,,,,,,,,,,1,1,1,2025-02-14_10h29.17.971,EP_task,2023.1.2,60.821516258809034,
22,3,1,1,None,None,1.0,2.0,1.0,2,0,25,25,25,0,0,0,0,,,,,,,,,,,,,,,,,,,,,,,,,,,1,1,None,,,,,,,,,,,,,,,,,,,1,1,1,2025-02-14_10h29.17.971,EP_task,2023.1.2,60.821516258809034,
22,3,1,1,None,None,1.0,2.0,1.0,2,0,25,25,25,,,,,0,0,0,0,,,,,,,,,,,,,,,,,,,,2,2.4951406000182033,746.3462435998954,2.0,2,,,2,2,1,2,,741.619806899922,0.06505820015445352,743.620575599838,743.620575599838,743.620575599838,743.620575599838,743.8128996999003,743.620575599838,743.620575599838,1,746.3462435998954,2.4951406000182033,1,1,1,2025-02-14_10h29.17.971,EP_task,2023.1.2,60.821516258809034,
22,3,1,1,None,None,1.0,2.0,1.0,2,0,25,25,25,,,,,,,,,,,,,,,,,,,,,,,,,,,,,,,,,,,,,,,,,,,,,,,,,,,,1,1,1,2025-02-14_10h29.17.971,EP_task,2023.1.2,60.821516258809034,
23,4,0,1,0.0,0.0,None,None,None,4,0,26,26,26,0,0,0,0,,,,,,,,,,,,,,,,,747.965748099843,0.12093869992531836,751.9630296998657,751.9630296998657,751.9630296998657,751.9630296998657,752.0963134998456,2,2.0922783000860363,754.2298476998694,1,2,2,2.0922783000860363,,,,,,,,,,,,,,,,,,1,1,1,2025-02-14_10h29.17.971,EP_task,2023.1.2,60.821516258809034,
23,4,0,1,0.0,0.0,None,None,None,4,0,26,26,26,,,,,0,0,0,0,,,,,,,,,,,,,,,,,,,,,,,None,1,,,2,2,1,None,,,,,,,,,,,,,,1,1,1,2025-02-14_10h29.17.971,EP_task,2023.1.2,60.821516258809034,
23,4,0,1,0.0,0.0,None,None,None,4,0,26,26,26,,,,,,,,,,,,,,,,,,,,,,,,,,,,,,,,,,,,,,,,,,,,,,,,,,,,1,1,1,2025-02-14_10h29.17.971,EP_task,2023.1.2,60.821516258809034,
24,4,0,1,0.0,0.0,None,None,None,2,0,27,27,27,0,0,0,0,,,,,,,,,,,,,,,,,755.9233540999703,0.12226260011084378,759.4344919000287,759.4344919000287,759.4344919000287,759.4344919000287,759.4344919000287,2,2.8559115999378264,762.3299505000468,2,2,2,2.8559115999378264,,,,,,,,,,,,,,,,,,1,1,1,2025-02-14_10h29.17.971,EP_task,2023.1.2,60.821516258809034,
24,4,0,1,0.0,0.0,None,None,None,2,0,27,27,27,,,,,0,0,0,0,,,,,,,,,,,,,,,,,,,,,,,None,2,,,2,2,1,None,,,,,,,,,,,,,,1,1,1,2025-02-14_10h29.17.971,EP_task,2023.1.2,60.821516258809034,
24,4,0,1,0.0,0.0,None,None,None,2,0,27,27,27,,,,,,,,,,,,,,,,,,,,,,,,,,,,,,,,,,,,,,,,,,,,,,,,,,,,1,1,1,2025-02-14_10h29.17.971,EP_task,2023.1.2,60.821516258809034,
25,4,0,1,0.0,0.0,None,None,None,3,0,28,28,28,0,0,0,0,,,,,,,,,,,,,,,,,764.0026511999313,0.12187200016342103,768.4968836000189,768.4968836000189,768.4968836000189,768.4968836000189,768.4968836000189,2,3.1158535999711603,771.6468886998482,1,1,2,3.1158535999711603,,,,,,,,,,,,,,,,,,1,1,1,2025-02-14_10h29.17.971,EP_task,2023.1.2,60.821516258809034,
25,4,0,1,0.0,0.0,None,None,None,3,0,28,28,28,,,,,0,0,0,0,,,,,,,,,,,,,,,,,,,,,,,None,2,,,1,2,1,None,,,,,,,,,,,,,,1,1,1,2025-02-14_10h29.17.971,EP_task,2023.1.2,60.821516258809034,
25,4,0,1,0.0,0.0,None,None,None,3,0,28,28,28,,,,,,,,,,,,,,,,,,,,,,,,,,,,,,,,,,,,,,,,,,,,,,,,,,,,1,1,1,2025-02-14_10h29.17.971,EP_task,2023.1.2,60.821516258809034,
26,4,0,1,0.0,1.0,None,None,None,3,0,29,29,29,0,0,0,0,,,,,,,,,,,,,,,,,773.3212971000466,0.12188180000521243,777.8238168999087,777.8238168999087,777.8238168999087,777.8238168999087,777.8238168999087,1,1.427865199977532,779.2971566000488,3,1,1,1.427865199977532,,,,,2,,,,,,,,,,,,,1,1,1,2025-02-14_10h29.17.971,EP_task,2023.1.2,60.821516258809034,
26,4,0,1,0.0,1.0,None,None,None,3,0,29,29,29,,,,,0,0,0,0,,,,,,,,,,,,,,,,,,,,,,,None,2,,,1,2,1,None,,,,,,,,,,,,,,1,1,1,2025-02-14_10h29.17.971,EP_task,2023.1.2,60.821516258809034,
26,4,0,1,0.0,1.0,None,None,None,3,0,29,29,29,,,,,,,,,,,,,,,,,,,,,,,,,,,,,,,,,,,,,,,,,,,,,,,,,,,,1,1,1,2025-02-14_10h29.17.971,EP_task,2023.1.2,60.821516258809034,
27,4,0,1,0.0,0.0,None,None,None,2,0,30,30,30,0,0,0,0,,,,,,,,,,,,,,,,,780.9678102000616,0.12033940013498068,784.4638167000376,784.4638167000376,784.4638167000376,784.4638167000376,784.4638167000376,2,2.2000128999352455,786.6971833999269,1,1,2,2.2000128999352455,,,,,,,,,,,,,,,,,,1,1,1,2025-02-14_10h29.17.971,EP_task,2023.1.2,60.821516258809034,
27,4,0,1,0.0,0.0,None,None,None,2,0,30,30,30,,,,,0,0,0,0,,,,,,,,,,,,,,,,,,,,,,,None,1,,,1,2,1,None,,,,,,,,,,,,,,1,1,1,2025-02-14_10h29.17.971,EP_task,2023.1.2,60.821516258809034,
27,4,0,1,0.0,0.0,None,None,None,2,0,30,30,30,,,,,,,,,,,,,,,,,,,,,,,,,,,,,,,,,,,,,,,,,,,,,,,,,,,,1,1,1,2025-02-14_10h29.17.971,EP_task,2023.1.2,60.821516258809034,
28,4,1,1,None,None,0.0,3.0,2.0,1,0,31,31,31,0,0,0,0,,,,,,,,,,,,,,,,,,,,,,,,,,,3,1,None,,,,,,,,,,,,,,,,,,,1,1,1,2025-02-14_10h29.17.971,EP_task,2023.1.2,60.821516258809034,
28,4,1,1,None,None,0.0,3.0,2.0,1,0,31,31,31,,,,,0,0,0,0,,,,,,,,,,,,,,,,,,,,,,,3.0,2,,,2,1,1,None,,788.4316336999182,0.05984829994849861,790.9475924998987,790.9475924998987,790.9475924998987,790.9475924998987,790.9475924998987,790.9475924998987,790.9475924998987,,,,1,1,1,2025-02-14_10h29.17.971,EP_task,2023.1.2,60.821516258809034,
28,4,1,1,None,None,0.0,3.0,2.0,1,0,31,31,31,,,,,1,0,1,0,,,,,,,,,,,,,,,,,,,,1,0.4175427998416126,796.1141691000666,3.0,2,,,2,1,2,1,,794.4530883999541,0.0603040000423789,795.4515269999392,795.4515269999392,795.4515269999392,795.4515269999392,795.6472732999828,795.4515269999392,795.4515269999392,1,796.1141691000666,0.4175427998416126,1,1,1,2025-02-14_10h29.17.971,EP_task,2023.1.2,60.821516258809034,
28,4,1,1,None,None,0.0,3.0,2.0,1,0,31,31,31,,,,,,,,,,,,,,,,,,,,,,,,,,,,,,,,,,,,,,,,,,,,,,,,,,,,1,1,1,2025-02-14_10h29.17.971,EP_task,2023.1.2,60.821516258809034,
28,4,1,1,None,None,1.0,3.0,1.0,4,0,32,32,32,0,0,0,0,,,,,,,,,,,,,,,,,,,,,,,,,,,3,2,None,,,,,,,,,,,,,,,,,,,1,1,1,2025-02-14_10h29.17.971,EP_task,2023.1.2,60.821516258809034,
28,4,1,1,None,None,1.0,3.0,1.0,4,0,32,32,32,,,,,0,0,0,0,,,,,,,,,,,,,,,,,,,,2,2.491961899911985,804.5311830998398,3.0,2,,,2,2,1,2,,797.801477199886,0.05449920007959008,801.8156816998962,801.8156816998962,801.8156816998962,801.8156816998962,801.9977720999159,801.8156816998962,801.8156816998962,1,804.5311830998398,2.491961899911985,1,1,1,2025-02-14_10h29.17.971,EP_task,2023.1.2,60.821516258809034,
28,4,1,1,None,None,1.0,3.0,1.0,4,0,32,32,32,,,,,,,,,,,,,,,,,,,,,,,,,,,,,,,,,,,,,,,,,,,,,,,,,,,,1,1,1,2025-02-14_10h29.17.971,EP_task,2023.1.2,60.821516258809034,
29,5,0,1,0.0,0.0,None,None,None,2,0,33,33,33,0,0,0,0,,,,,,,,,,,,,,,,,806.1496273998637,0.12258540000766516,808.1478090998717,808.1478090998717,808.1478090998717,808.1478090998717,808.2811995998491,2,2.229605699889362,810.5477719998453,3,1,2,2.229605699889362,,,,,,,,,,,,,,,,,,1,1,1,2025-02-14_10h29.17.971,EP_task,2023.1.2,60.821516258809034,
29,5,0,1,0.0,0.0,None,None,None,2,0,33,33,33,,,,,0,0,0,0,,,,,,,,,,,,,,,,,,,,,,,None,1,,,1,2,1,None,,,,,,,,,,,,,,1,1,1,2025-02-14_10h29.17.971,EP_task,2023.1.2,60.821516258809034,
29,5,0,1,0.0,0.0,None,None,None,2,0,33,33,33,,,,,,,,,,,,,,,,,,,,,,,,,,,,,,,,,,,,,,,,,,,,,,,,,,,,1,1,1,2025-02-14_10h29.17.971,EP_task,2023.1.2,60.821516258809034,
30,5,0,1,0.0,1.0,None,None,None,1,0,34,34,34,0,0,0,0,,,,,,,,,,,,,,,,,812.2161278999411,0.1188757000491023,814.7146912000608,814.7146912000608,814.7146912000608,814.7146912000608,814.7146912000608,2,1.538001400185749,816.2980748999398,2,1,2,1.538001400185749,,,,,1,,,,,,,,,,,,,1,1,1,2025-02-14_10h29.17.971,EP_task,2023.1.2,60.821516258809034,
30,5,0,1,0.0,1.0,None,None,None,1,0,34,34,34,,,,,0,0,0,0,,,,,,,,,,,,,,,,,,,,,,,None,1,,,1,2,1,None,,,,,,,,,,,,,,1,1,1,2025-02-14_10h29.17.971,EP_task,2023.1.2,60.821516258809034,
30,5,0,1,0.0,1.0,None,None,None,1,0,34,34,34,,,,,,,,,,,,,,,,,,,,,,,,,,,,,,,,,,,,,,,,,,,,,,,,,,,,1,1,1,2025-02-14_10h29.17.971,EP_task,2023.1.2,60.821516258809034,
31,5,0,1,0.0,0.0,None,None,None,5,0,35,35,35,0,0,0,0,,,,,,,,,,,,,,,,,817.9847690998577,0.12088279984891415,824.4982956000604,824.4982956000604,824.4982956000604,824.4982956000604,824.4982956000604,2,1.514053300023079,826.0482727999333,3,2,2,1.514053300023079,,,,,,,,,,,,,,,,,,1,1,1,2025-02-14_10h29.17.971,EP_task,2023.1.2,60.821516258809034,
31,5,0,1,0.0,0.0,None,None,None,5,0,35,35,35,,,,,0,0,0,0,,,,,,,,,,,,,,,,,,,,,,,None,2,,,2,2,1,None,,,,,,,,,,,,,,1,1,1,2025-02-14_10h29.17.971,EP_task,2023.1.2,60.821516258809034,
31,5,0,1,0.0,0.0,None,None,None,5,0,35,35,35,,,,,,,,,,,,,,,,,,,,,,,,,,,,,,,,,,,,,,,,,,,,,,,,,,,,1,1,1,2025-02-14_10h29.17.971,EP_task,2023.1.2,60.821516258809034,
32,5,0,1,0.0,0.0,None,None,None,1,0,36,36,36,0,0,0,0,,,,,,,,,,,,,,,,,827.7244619000703,0.12428129999898374,830.2198769999668,830.2198769999668,830.2198769999668,830.2198769999668,830.2198769999668,1,1.6256098998710513,831.8818971000146,1,2,1,1.6256098998710513,,,,,,,,,,,,,,,,,,1,1,1,2025-02-14_10h29.17.971,EP_task,2023.1.2,60.821516258809034,
32,5,0,1,0.0,0.0,None,None,None,1,0,36,36,36,,,,,0,0,0,0,,,,,,,,,,,,,,,,,,,,,,,None,1,,,2,2,1,None,,,,,,,,,,,,,,1,1,1,2025-02-14_10h29.17.971,EP_task,2023.1.2,60.821516258809034,
32,5,0,1,0.0,0.0,None,None,None,1,0,36,36,36,,,,,,,,,,,,,,,,,,,,,,,,,,,,,,,,,,,,,,,,,,,,,,,,,,,,1,1,1,2025-02-14_10h29.17.971,EP_task,2023.1.2,60.821516258809034,
33,5,0,1,0.0,0.0,None,None,None,3,0,37,37,37,0,0,0,0,,,,,,,,,,,,,,,,,833.5708747999743,0.12054080003872514,838.0921245999634,838.0921245999634,838.0921245999634,838.0921245999634,838.0921245999634,2,2.3911874999757856,840.5319556000177,3,1,2,2.3911874999757856,,,,,,,,,,,,,,,,,,1,1,1,2025-02-14_10h29.17.971,EP_task,2023.1.2,60.821516258809034,
33,5,0,1,0.0,0.0,None,None,None,3,0,37,37,37,,,,,0,0,0,0,,,,,,,,,,,,,,,,,,,,,,,None,2,,,1,2,1,None,,,,,,,,,,,,,,1,1,1,2025-02-14_10h29.17.971,EP_task,2023.1.2,60.821516258809034,
33,5,0,1,0.0,0.0,None,None,None,3,0,37,37,37,,,,,,,,,,,,,,,,,,,,,,,,,,,,,,,,,,,,,,,,,,,,,,,,,,,,1,1,1,2025-02-14_10h29.17.971,EP_task,2023.1.2,60.821516258809034,
34,5,0,1,0.0,0.0,None,None,None,5,0,38,38,38,0,0,0,0,,,,,,,,,,,,,,,,,842.22102060006,0.12087740004062653,848.7321265998762,848.7321265998762,848.7321265998762,848.7321265998762,848.7321265998762,1,2.391404800117016,851.165680399863,2,1,1,2.391404800117016,,,,,,,,,,,,,,,,,,1,1,1,2025-02-14_10h29.17.971,EP_task,2023.1.2,60.821516258809034,
34,5,0,1,0.0,0.0,None,None,None,5,0,38,38,38,,,,,0,0,0,0,,,,,,,,,,,,,,,,,,,,,,,None,1,,,1,2,1,None,,,,,,,,,,,,,,1,1,1,2025-02-14_10h29.17.971,EP_task,2023.1.2,60.821516258809034,
34,5,0,1,0.0,0.0,None,None,None,5,0,38,38,38,,,,,,,,,,,,,,,,,,,,,,,,,,,,,,,,,,,,,,,,,,,,,,,,,,,,1,1,1,2025-02-14_10h29.17.971,EP_task,2023.1.2,60.821516258809034,
35,5,1,1,None,None,0.0,1.0,2.0,1,0,39,39,39,0,0,0,0,,,,,,,,,,,,,,,,,,,,,,,,,,,1,2,None,,,,,,,,,,,,,,,,,,,1,1,1,2025-02-14_10h29.17.971,EP_task,2023.1.2,60.821516258809034,
35,5,1,1,None,None,0.0,1.0,2.0,1,0,39,39,39,,,,,0,0,0,0,,,,,,,,,,,,,,,,,,,,,,,1.0,2,,,2,2,1,None,,852.8929377999157,0.058515300042927265,855.3932165999431,855.3932165999431,855.3932165999431,855.3932165999431,855.3932165999431,855.3932165999431,855.3932165999431,,,,1,1,1,2025-02-14_10h29.17.971,EP_task,2023.1.2,60.821516258809034,
35,5,1,1,None,None,0.0,1.0,2.0,1,0,39,39,39,,,,,1,0,1,0,,,,,,,,,,,,,,,,,,,,2,0.39019050006754696,860.5326051998418,1.0,2,,,2,2,2,2,,858.902958399849,0.057733000023290515,859.9044927000068,859.9044927000068,859.9044927000068,859.9044927000068,860.0992510998622,859.9044927000068,859.9044927000068,1,860.5326051998418,0.39019050006754696,1,1,1,2025-02-14_10h29.17.971,EP_task,2023.1.2,60.821516258809034,
35,5,1,1,None,None,0.0,1.0,2.0,1,0,39,39,39,,,,,,,,,,,,,,,,,,,,,,,,,,,,,,,,,,,,,,,,,,,,,,,,,,,,1,1,1,2025-02-14_10h29.17.971,EP_task,2023.1.2,60.821516258809034,
35,5,1,1,None,None,1.0,1.0,3.0,5,0,40,40,40,0,0,0,0,,,,,,,,,,,,,,,,,,,,,,,,,,,1,2,None,,,,,,,,,,,,,,,,,,,1,1,1,2025-02-14_10h29.17.971,EP_task,2023.1.2,60.821516258809034,
35,5,1,1,None,None,1.0,1.0,3.0,5,0,40,40,40,,,,,0,0,0,0,,,,,,,,,,,,,,,,,,,,2,3.6142336998600513,871.0827951000538,1.0,2,,,2,1,2,2,,862.2257876000367,0.05900650005787611,867.2431317998562,867.2431317998562,867.2431317998562,867.2431317998562,867.4188443999738,867.2431317998562,867.2431317998562,0,871.0827951000538,3.6142336998600513,1,1,1,2025-02-14_10h29.17.971,EP_task,2023.1.2,60.821516258809034,
35,5,1,1,None,None,1.0,1.0,3.0,5,0,40,40,40,,,,,,,,,,,,,,,,,,,,,,,,,,,,,,,,,,,,,,,,,,,,,,,,,,,,1,1,1,2025-02-14_10h29.17.971,EP_task,2023.1.2,60.821516258809034,
36,6,0,0,0.0,0.0,None,None,None,3,0,41,41,41,0,0,0,0,,,,,,,,,,,,,,,,,872.7018830999732,0.12073879991658032,875.6996033999603,875.6996033999603,875.6996033999603,875.6996033999603,875.8327814999502,1,2.509145100135356,878.3826311000157,1,2,1,2.509145100135356,,,,,,,,,,,,,,,,,,1,1,1,2025-02-14_10h29.17.971,EP_task,2023.1.2,60.821516258809034,
36,6,0,0,0.0,0.0,None,None,None,3,0,41,41,41,,,,,0,0,0,0,,,,,,,,,,,,,,,,,,,,,,,None,2,,,2,1,2,None,,,,,,,,,,,,,,1,1,1,2025-02-14_10h29.17.971,EP_task,2023.1.2,60.821516258809034,
36,6,0,0,0.0,0.0,None,None,None,3,0,41,41,41,,,,,,,,,,,,,,,,,,,,,,,,,,,,,,,,,,,,,,,,,,,,,,,,,,,,1,1,1,2025-02-14_10h29.17.971,EP_task,2023.1.2,60.821516258809034,
37,6,0,0,0.0,0.0,None,None,None,3,0,42,42,42,0,0,0,0,,,,,,,,,,,,,,,,,880.0546460999176,0.11935389996506274,884.5664876999799,884.5664876999799,884.5664876999799,884.5664876999799,884.5664876999799,2,3.2942136998753995,887.8999024999794,2,1,2,3.2942136998753995,,,,,,,,,,,,,,,,,,1,1,1,2025-02-14_10h29.17.971,EP_task,2023.1.2,60.821516258809034,
37,6,0,0,0.0,0.0,None,None,None,3,0,42,42,42,,,,,0,0,0,0,,,,,,,,,,,,,,,,,,,,,,,None,1,,,1,1,2,None,,,,,,,,,,,,,,1,1,1,2025-02-14_10h29.17.971,EP_task,2023.1.2,60.821516258809034,
37,6,0,0,0.0,0.0,None,None,None,3,0,42,42,42,,,,,,,,,,,,,,,,,,,,,,,,,,,,,,,,,,,,,,,,,,,,,,,,,,,,1,1,1,2025-02-14_10h29.17.971,EP_task,2023.1.2,60.821516258809034,
38,6,0,0,0.0,1.0,None,None,None,2,0,43,43,43,0,0,0,0,,,,,,,,,,,,,,,,,889.5721183998976,0.12109590019099414,893.0666524998378,893.0666524998378,893.0666524998378,893.0666524998378,893.0666524998378,2,1.23623130004853,894.3498821000103,3,1,2,1.23623130004853,,,,,1,,,,,,,,,,,,,1,1,1,2025-02-14_10h29.17.971,EP_task,2023.1.2,60.821516258809034,
38,6,0,0,0.0,1.0,None,None,None,2,0,43,43,43,,,,,0,0,0,0,,,,,,,,,,,,,,,,,,,,,,,None,2,,,1,1,2,None,,,,,,,,,,,,,,1,1,1,2025-02-14_10h29.17.971,EP_task,2023.1.2,60.821516258809034,
38,6,0,0,0.0,1.0,None,None,None,2,0,43,43,43,,,,,,,,,,,,,,,,,,,,,,,,,,,,,,,,,,,,,,,,,,,,,,,,,,,,1,1,1,2025-02-14_10h29.17.971,EP_task,2023.1.2,60.821516258809034,
39,6,0,0,0.0,0.0,None,None,None,1,0,44,44,44,0,0,0,0,,,,,,,,,,,,,,,,,896.0376033000648,0.11944629997015,898.5501440998632,898.5501440998632,898.5501440998632,898.5501440998632,898.5501440998632,1,2.0465047999750823,900.6333045999054,1,1,1,2.0465047999750823,,,,,,,,,,,,,,,,,,1,1,1,2025-02-14_10h29.17.971,EP_task,2023.1.2,60.821516258809034,
39,6,0,0,0.0,0.0,None,None,None,1,0,44,44,44,,,,,0,0,0,0,,,,,,,,,,,,,,,,,,,,,,,None,1,,,1,1,2,None,,,,,,,,,,,,,,1,1,1,2025-02-14_10h29.17.971,EP_task,2023.1.2,60.821516258809034,
39,6,0,0,0.0,0.0,None,None,None,1,0,44,44,44,,,,,,,,,,,,,,,,,,,,,,,,,,,,,,,,,,,,,,,,,,,,,,,,,,,,1,1,1,2025-02-14_10h29.17.971,EP_task,2023.1.2,60.821516258809034,
40,6,0,0,0.0,0.0,None,None,None,2,0,45,45,45,0,0,0,0,,,,,,,,,,,,,,,,,902.301862699911,0.11782249994575977,905.8002680998761,905.8002680998761,905.8002680998761,905.8002680998761,905.8002680998761,2,1.6753903001081198,907.5170364999212,2,2,2,1.6753903001081198,,,,,,,,,,,,,,,,,,1,1,1,2025-02-14_10h29.17.971,EP_task,2023.1.2,60.821516258809034,
40,6,0,0,0.0,0.0,None,None,None,2,0,45,45,45,,,,,0,0,0,0,,,,,,,,,,,,,,,,,,,,,,,None,2,,,2,1,2,None,,,,,,,,,,,,,,1,1,1,2025-02-14_10h29.17.971,EP_task,2023.1.2,60.821516258809034,
40,6,0,0,0.0,0.0,None,None,None,2,0,45,45,45,,,,,,,,,,,,,,,,,,,,,,,,,,,,,,,,,,,,,,,,,,,,,,,,,,,,1,1,1,2025-02-14_10h29.17.971,EP_task,2023.1.2,60.821516258809034,
41,6,1,0,None,None,1.0,2.0,1.0,1,0,46,46,46,0,0,0,0,,,,,,,,,,,,,,,,,,,,,,,,,,,3,1,None,,,,,,,,,,,,,,,,,,,1,1,1,2025-02-14_10h29.17.971,EP_task,2023.1.2,60.821516258809034,
41,6,1,0,None,None,1.0,2.0,1.0,1,0,46,46,46,,,,,0,0,0,0,,,,,,,,,,,,,,,,,,,,,,,2.0,1,,,1,2,2,None,,909.2430858998559,0.0593471999745816,911.7420089999214,911.7420089999214,911.7420089999214,911.7420089999214,911.7420089999214,911.7420089999214,911.7420089999214,,,,1,1,1,2025-02-14_10h29.17.971,EP_task,2023.1.2,60.821516258809034,
41,6,1,0,None,None,1.0,2.0,1.0,1,0,46,46,46,,,,,1,0,1,0,,,,,,,,,,,,,,,,,,,,1,0.3958408001344651,916.8839646000415,2.0,1,,,1,2,1,1,,915.2581873999443,0.062391400104388595,916.2567735998891,916.2567735998891,916.2567735998891,916.2567735998891,916.4503446000163,916.2567735998891,916.2567735998891,0,916.8839646000415,0.3958408001344651,1,1,1,2025-02-14_10h29.17.971,EP_task,2023.1.2,60.821516258809034,
41,6,1,0,None,None,1.0,2.0,1.0,1,0,46,46,46,,,,,,,,,,,,,,,,,,,,,,,,,,,,,,,,,,,,,,,,,,,,,,,,,,,,1,1,1,2025-02-14_10h29.17.971,EP_task,2023.1.2,60.821516258809034,
41,6,1,0,None,None,0.0,2.0,3.0,3,0,47,47,47,0,0,0,0,,,,,,,,,,,,,,,,,,,,,,,,,,,3,1,None,,,,,,,,,,,,,,,,,,,1,1,1,2025-02-14_10h29.17.971,EP_task,2023.1.2,60.821516258809034,
41,6,1,0,None,None,0.0,2.0,3.0,3,0,47,47,47,,,,,0,0,0,0,,,,,,,,,,,,,,,,,,,,1,2.4170532999560237,924.2007285000291,2.0,2,,,2,1,3,1,,918.5570694999769,0.05813469993881881,921.5563131999224,921.5563131999224,921.5563131999224,921.5563131999224,921.7506623000372,921.5563131999224,921.5563131999224,1,924.2007285000291,2.4170532999560237,1,1,1,2025-02-14_10h29.17.971,EP_task,2023.1.2,60.821516258809034,
41,6,1,0,None,None,0.0,2.0,3.0,3,0,47,47,47,,,,,,,,,,,,,,,,,,,,,,,,,,,,,,,,,,,,,,,,,,,,,,,,,,,,1,1,1,2025-02-14_10h29.17.971,EP_task,2023.1.2,60.821516258809034,
42,7,0,0,0.0,0.0,None,None,None,2,0,48,48,48,0,0,0,0,,,,,,,,,,,,,,,,,925.816101900069,0.12006679992191494,927.8171763999853,927.8171763999853,927.8171763999853,927.8171763999853,927.9505104999989,1,2.5763526000082493,930.5673603999894,3,2,1,2.5763526000082493,,,,,,,,,,,,,,,,,,1,1,1,2025-02-14_10h29.17.971,EP_task,2023.1.2,60.821516258809034,
42,7,0,0,0.0,0.0,None,None,None,2,0,48,48,48,,,,,0,0,0,0,,,,,,,,,,,,,,,,,,,,,,,None,1,,,2,1,3,None,,,,,,,,,,,,,,1,1,1,2025-02-14_10h29.17.971,EP_task,2023.1.2,60.821516258809034,
42,7,0,0,0.0,0.0,None,None,None,2,0,48,48,48,,,,,,,,,,,,,,,,,,,,,,,,,,,,,,,,,,,,,,,,,,,,,,,,,,,,1,1,1,2025-02-14_10h29.17.971,EP_task,2023.1.2,60.821516258809034,
43,7,0,0,0.0,1.0,None,None,None,1,0,49,49,49,0,0,0,0,,,,,,,,,,,,,,,,,932.2341958000325,0.11747639998793602,934.7343588999938,934.7343588999938,934.7343588999938,934.7343588999938,934.7343588999938,1,2.179180799983442,936.9511136999354,1,2,1,2.179180799983442,,,,,2,,,,,,,,,,,,,1,1,1,2025-02-14_10h29.17.971,EP_task,2023.1.2,60.821516258809034,
43,7,0,0,0.0,1.0,None,None,None,1,0,49,49,49,,,,,0,0,0,0,,,,,,,,,,,,,,,,,,,,,,,None,1,,,2,1,3,None,,,,,,,,,,,,,,1,1,1,2025-02-14_10h29.17.971,EP_task,2023.1.2,60.821516258809034,
43,7,0,0,0.0,1.0,None,None,None,1,0,49,49,49,,,,,,,,,,,,,,,,,,,,,,,,,,,,,,,,,,,,,,,,,,,,,,,,,,,,1,1,1,2025-02-14_10h29.17.971,EP_task,2023.1.2,60.821516258809034,
44,7,0,0,0.0,0.0,None,None,None,3,0,50,50,50,0,0,0,0,,,,,,,,,,,,,,,,,938.6207013998646,0.11691910005174577,943.118409599876,943.118409599876,943.118409599876,943.118409599876,943.118409599876,2,1.7552763000130653,944.917824300006,2,1,2,1.7552763000130653,,,,,,,,,,,,,,,,,,1,1,1,2025-02-14_10h29.17.971,EP_task,2023.1.2,60.821516258809034,
44,7,0,0,0.0,0.0,None,None,None,3,0,50,50,50,,,,,0,0,0,0,,,,,,,,,,,,,,,,,,,,,,,None,2,,,1,1,3,None,,,,,,,,,,,,,,1,1,1,2025-02-14_10h29.17.971,EP_task,2023.1.2,60.821516258809034,
44,7,0,0,0.0,0.0,None,None,None,3,0,50,50,50,,,,,,,,,,,,,,,,,,,,,,,,,,,,,,,,,,,,,,,,,,,,,,,,,,,,1,1,1,2025-02-14_10h29.17.971,EP_task,2023.1.2,60.821516258809034,
45,7,0,0,0.0,0.0,None,None,None,4,0,51,51,51,0,0,0,0,,,,,,,,,,,,,,,,,946.5994992998894,0.11729039996862411,952.1092023998499,952.1092023998499,952.1092023998499,952.1092023998499,952.1092023998499,2,2.037658500019461,954.1848503998481,3,1,2,2.037658500019461,,,,,,,,,,,,,,,,,,1,1,1,2025-02-14_10h29.17.971,EP_task,2023.1.2,60.821516258809034,
45,7,0,0,0.0,0.0,None,None,None,4,0,51,51,51,,,,,0,0,0,0,,,,,,,,,,,,,,,,,,,,,,,None,1,,,1,1,3,None,,,,,,,,,,,,,,1,1,1,2025-02-14_10h29.17.971,EP_task,2023.1.2,60.821516258809034,
45,7,0,0,0.0,0.0,None,None,None,4,0,51,51,51,,,,,,,,,,,,,,,,,,,,,,,,,,,,,,,,,,,,,,,,,,,,,,,,,,,,1,1,1,2025-02-14_10h29.17.971,EP_task,2023.1.2,60.821516258809034,
46,7,0,0,1.0,0.0,None,None,None,2,0,52,52,52,0,0,0,0,,,,,,,,,,,,,,,,,955.8448919998482,0.1122737000696361,959.3367043999024,959.3367043999024,959.3367043999024,959.3367043999024,959.3367043999024,1,2.0328349999617785,961.4183656999376,1,2,1,2.0328349999617785,,,,,,,,,,,,,,,,,,1,1,1,2025-02-14_10h29.17.971,EP_task,2023.1.2,60.821516258809034,
46,7,0,0,1.0,0.0,None,None,None,2,0,52,52,52,,,,,0,0,0,0,,,,,,,,,,,,,,,,,,,,,,,None,2,,,2,1,3,None,,,,,,,,,,,,,,1,1,1,2025-02-14_10h29.17.971,EP_task,2023.1.2,60.821516258809034,
46,7,0,0,1.0,0.0,None,None,None,2,0,52,52,52,,,,,,,,,,,,,,,,,,,,,,,,,,,,,,,,,,,,,,,,,,,,,,,,,,,,1,1,1,2025-02-14_10h29.17.971,EP_task,2023.1.2,60.821516258809034,
47,7,0,0,0.0,0.0,None,None,None,1,0,53,53,53,0,0,0,0,,,,,,,,,,,,,,,,,963.0819697999395,0.11643909988924861,965.5735494999681,965.5735494999681,965.5735494999681,965.5735494999681,965.5735494999681,,,,3,1,None,,,,,,,,,,,,,,,,,,,1,1,1,2025-02-14_10h29.17.971,EP_task,2023.1.2,60.821516258809034,
47,7,0,0,0.0,0.0,None,None,None,1,0,53,53,53,1,0,1,0,,,,,,,,,,,,,,,,,969.0901575998869,0.11442409991286695,970.0852180998772,970.0852180998772,970.0852180998772,970.0852180998772,970.2357405000366,2,1.2805920999962837,971.5851884000003,3,1,2,1.2805920999962837,,,,,,,,,,,,,,,,,,1,1,1,2025-02-14_10h29.17.971,EP_task,2023.1.2,60.821516258809034,
47,7,0,0,0.0,0.0,None,None,None,1,0,53,53,53,,,,,0,0,0,0,,,,,,,,,,,,,,,,,,,,,,,None,2,,,1,1,3,None,,,,,,,,,,,,,,1,1,1,2025-02-14_10h29.17.971,EP_task,2023.1.2,60.821516258809034,
47,7,0,0,0.0,0.0,None,None,None,1,0,53,53,53,,,,,,,,,,,,,,,,,,,,,,,,,,,,,,,,,,,,,,,,,,,,,,,,,,,,1,1,1,2025-02-14_10h29.17.971,EP_task,2023.1.2,60.821516258809034,
48,7,0,0,0.0,0.0,None,None,None,3,0,54,54,54,0,0,0,0,,,,,,,,,,,,,,,,,973.2667407998815,0.11627610004507005,977.7700406999793,977.7700406999793,977.7700406999793,977.7700406999793,977.7700406999793,2,2.6719184999819845,980.4854240999557,1,1,2,2.6719184999819845,,,,,,,,,,,,,,,,,,1,1,1,2025-02-14_10h29.17.971,EP_task,2023.1.2,60.821516258809034,
48,7,0,0,0.0,0.0,None,None,None,3,0,54,54,54,,,,,0,0,0,0,,,,,,,,,,,,,,,,,,,,,,,None,1,,,1,1,3,None,,,,,,,,,,,,,,1,1,1,2025-02-14_10h29.17.971,EP_task,2023.1.2,60.821516258809034,
48,7,0,0,0.0,0.0,None,None,None,3,0,54,54,54,,,,,,,,,,,,,,,,,,,,,,,,,,,,,,,,,,,,,,,,,,,,,,,,,,,,1,1,1,2025-02-14_10h29.17.971,EP_task,2023.1.2,60.821516258809034,
49,7,1,0,None,None,0.0,3.0,1.0,4,0,55,55,55,0,0,0,0,,,,,,,,,,,,,,,,,,,,,,,,,,,2,1,None,,,,,,,,,,,,,,,,,,,1,1,1,2025-02-14_10h29.17.971,EP_task,2023.1.2,60.821516258809034,
49,7,1,0,None,None,0.0,3.0,1.0,4,0,55,55,55,,,,,0,0,0,0,,,,,,,,,,,,,,,,,,,,,,,3.0,2,,,1,1,3,None,,982.2113733999431,0.05946819996461272,987.7098906999454,987.7098906999454,987.7098906999454,987.7098906999454,987.7098906999454,987.7098906999454,987.7098906999454,,,,1,1,1,2025-02-14_10h29.17.971,EP_task,2023.1.2,60.821516258809034,
49,7,1,0,None,None,0.0,3.0,1.0,4,0,55,55,55,,,,,1,0,1,0,,,,,,,,,,,,,,,,,,,,1,0.3728914998937398,995.8239368998911,3.0,2,,,1,1,1,1,,991.2302673000377,0.06315190019086003,995.2349443999119,995.2349443999119,995.2349443999119,995.2349443999119,995.417476200033,995.2349443999119,995.2349443999119,1,995.8239368998911,0.3728914998937398,1,1,1,2025-02-14_10h29.17.971,EP_task,2023.1.2,60.821516258809034,
49,7,1,0,None,None,0.0,3.0,1.0,4,0,55,55,55,,,,,,,,,,,,,,,,,,,,,,,,,,,,,,,,,,,,,,,,,,,,,,,,,,,,1,1,1,2025-02-14_10h29.17.971,EP_task,2023.1.2,60.821516258809034,
49,7,1,0,None,None,1.0,3.0,2.0,1,0,56,56,56,0,0,0,0,,,,,,,,,,,,,,,,,,,,,,,,,,,2,2,None,,,,,,,,,,,,,,,,,,,1,1,1,2025-02-14_10h29.17.971,EP_task,2023.1.2,60.821516258809034,
49,7,1,0,None,None,1.0,3.0,2.0,1,0,56,56,56,,,,,0,0,0,0,,,,,,,,,,,,,,,,,,,,2,2.5507282000035048,1001.2859427998774,3.0,2,,,2,2,1,2,,997.5050359000452,0.0591085001360625,998.5080472000409,998.5080472000409,998.5080472000409,998.5080472000409,998.6905906000175,998.5080472000409,998.5080472000409,1,1001.2859427998774,2.5507282000035048,1,1,1,2025-02-14_10h29.17.971,EP_task,2023.1.2,60.821516258809034,
49,7,1,0,None,None,1.0,3.0,2.0,1,0,56,56,56,,,,,,,,,,,,,,,,,,,,,,,,,,,,,,,,,,,,,,,,,,,,,,,,,,,,1,1,1,2025-02-14_10h29.17.971,EP_task,2023.1.2,60.821516258809034,
50,8,0,0,0.0,0.0,None,None,None,2,0,57,57,57,0,0,0,0,,,,,,,,,,,,,,,,,1002.9075428999495,0.12366349995136261,1004.9027378000319,1004.9027378000319,1004.9027378000319,1004.9027378000319,1005.0361035999376,1,3.628406299976632,1008.7028814000078,2,1,1,3.628406299976632,,,,,,,,,,,,,,,,,,1,1,1,2025-02-14_10h29.17.971,EP_task,2023.1.2,60.821516258809034,
50,8,0,0,0.0,0.0,None,None,None,2,0,57,57,57,,,,,0,0,0,0,,,,,,,,,,,,,,,,,,,,,,,None,1,,,1,2,1,None,,,,,,,,,,,,,,1,1,1,2025-02-14_10h29.17.971,EP_task,2023.1.2,60.821516258809034,
50,8,0,0,0.0,0.0,None,None,None,2,0,57,57,57,,,,,,,,,,,,,,,,,,,,,,,,,,,,,,,,,,,,,,,,,,,,,,,,,,,,1,1,1,2025-02-14_10h29.17.971,EP_task,2023.1.2,60.821516258809034,
51,8,0,0,0.0,0.0,None,None,None,1,0,58,58,58,0,0,0,0,,,,,,,,,,,,,,,,,1010.3887105998583,0.11760049988515675,1012.902881299844,1012.902881299844,1012.902881299844,1012.902881299844,1012.902881299844,1,2.1127295999322087,1015.052994800033,3,2,1,2.1127295999322087,,,,,,,,,,,,,,,,,,1,1,1,2025-02-14_10h29.17.971,EP_task,2023.1.2,60.821516258809034,
51,8,0,0,0.0,0.0,None,None,None,1,0,58,58,58,,,,,0,0,0,0,,,,,,,,,,,,,,,,,,,,,,,None,2,,,2,2,1,None,,,,,,,,,,,,,,1,1,1,2025-02-14_10h29.17.971,EP_task,2023.1.2,60.821516258809034,
51,8,0,0,0.0,0.0,None,None,None,1,0,58,58,58,,,,,,,,,,,,,,,,,,,,,,,,,,,,,,,,,,,,,,,,,,,,,,,,,,,,1,1,1,2025-02-14_10h29.17.971,EP_task,2023.1.2,60.821516258809034,
52,8,0,0,0.0,0.0,None,None,None,2,0,59,59,59,0,0,0,0,,,,,,,,,,,,,,,,,1016.7229668998625,0.11825850000604987,1020.2198665000033,1020.2198665000033,1020.2198665000033,1020.2198665000033,1020.2198665000033,2,1.6576026999391615,1021.9199264000636,1,1,2,1.6576026999391615,,,,,,,,,,,,,,,,,,1,1,1,2025-02-14_10h29.17.971,EP_task,2023.1.2,60.821516258809034,
52,8,0,0,0.0,0.0,None,None,None,2,0,59,59,59,,,,,0,0,0,0,,,,,,,,,,,,,,,,,,,,,,,None,2,,,1,2,1,None,,,,,,,,,,,,,,1,1,1,2025-02-14_10h29.17.971,EP_task,2023.1.2,60.821516258809034,
52,8,0,0,0.0,0.0,None,None,None,2,0,59,59,59,,,,,,,,,,,,,,,,,,,,,,,,,,,,,,,,,,,,,,,,,,,,,,,,,,,,1,1,1,2025-02-14_10h29.17.971,EP_task,2023.1.2,60.821516258809034,
53,8,0,0,0.0,1.0,None,None,None,1,0,60,60,60,0,0,0,0,,,,,,,,,,,,,,,,,1023.6028559000697,0.11764899990521371,1026.1126826999243,1026.1126826999243,1026.1126826999243,1026.1126826999243,1026.1126826999243,2,1.2757975000422448,1027.4367157998495,2,1,2,1.2757975000422448,,,,,1,,,,,,,,,,,,,1,1,1,2025-02-14_10h29.17.971,EP_task,2023.1.2,60.821516258809034,
53,8,0,0,0.0,1.0,None,None,None,1,0,60,60,60,,,,,0,0,0,0,,,,,,,,,,,,,,,,,,,,,,,None,2,,,1,2,1,None,,,,,,,,,,,,,,1,1,1,2025-02-14_10h29.17.971,EP_task,2023.1.2,60.821516258809034,
53,8,0,0,0.0,1.0,None,None,None,1,0,60,60,60,,,,,,,,,,,,,,,,,,,,,,,,,,,,,,,,,,,,,,,,,,,,,,,,,,,,1,1,1,2025-02-14_10h29.17.971,EP_task,2023.1.2,60.821516258809034,
54,8,0,0,1.0,0.0,None,None,None,5,0,61,61,61,0,0,0,0,,,,,,,,,,,,,,,,,1029.1166697998997,0.11228600004687905,1035.6277677998878,1035.6277677998878,1035.6277677998878,1035.6277677998878,1035.6277677998878,2,2.4958112000022084,1038.1700164000504,3,1,2,2.4958112000022084,,,,,,,,,,,,,,,,,,1,1,1,2025-02-14_10h29.17.971,EP_task,2023.1.2,60.821516258809034,
54,8,0,0,1.0,0.0,None,None,None,5,0,61,61,61,,,,,0,0,0,0,,,,,,,,,,,,,,,,,,,,,,,None,1,,,1,2,1,None,,,,,,,,,,,,,,1,1,1,2025-02-14_10h29.17.971,EP_task,2023.1.2,60.821516258809034,
54,8,0,0,1.0,0.0,None,None,None,5,0,61,61,61,,,,,,,,,,,,,,,,,,,,,,,,,,,,,,,,,,,,,,,,,,,,,,,,,,,,1,1,1,2025-02-14_10h29.17.971,EP_task,2023.1.2,60.821516258809034,
55,8,0,0,0.0,0.0,None,None,None,2,0,62,62,62,0,0,0,0,,,,,,,,,,,,,,,,,1039.8397061000578,0.11827129987068474,1043.3369243999477,1043.3369243999477,1043.3369243999477,1043.3369243999477,1043.3369243999477,2,2.4909012999851257,1045.8703315998428,2,2,2,2.4909012999851257,,,,,,,,,,,,,,,,,,1,1,1,2025-02-14_10h29.17.971,EP_task,2023.1.2,60.821516258809034,
55,8,0,0,0.0,0.0,None,None,None,2,0,62,62,62,,,,,0,0,0,0,,,,,,,,,,,,,,,,,,,,,,,None,1,,,2,2,1,None,,,,,,,,,,,,,,1,1,1,2025-02-14_10h29.17.971,EP_task,2023.1.2,60.821516258809034,
55,8,0,0,0.0,0.0,None,None,None,2,0,62,62,62,,,,,,,,,,,,,,,,,,,,,,,,,,,,,,,,,,,,,,,,,,,,,,,,,,,,1,1,1,2025-02-14_10h29.17.971,EP_task,2023.1.2,60.821516258809034,
56,8,0,0,0.0,0.0,None,None,None,3,0,63,63,63,0,0,0,0,,,,,,,,,,,,,,,,,1047.5380375999957,0.11731349979527295,1052.0375917998608,1052.0375917998608,1052.0375917998608,1052.0375917998608,1052.0375917998608,1,2.7767858000006527,1054.8538422998972,3,2,1,2.7767858000006527,,,,,,,,,,,,,,,,,,1,1,1,2025-02-14_10h29.17.971,EP_task,2023.1.2,60.821516258809034,
56,8,0,0,0.0,0.0,None,None,None,3,0,63,63,63,,,,,0,0,0,0,,,,,,,,,,,,,,,,,,,,,,,None,1,,,2,2,1,None,,,,,,,,,,,,,,1,1,1,2025-02-14_10h29.17.971,EP_task,2023.1.2,60.821516258809034,
56,8,0,0,0.0,0.0,None,None,None,3,0,63,63,63,,,,,,,,,,,,,,,,,,,,,,,,,,,,,,,,,,,,,,,,,,,,,,,,,,,,1,1,1,2025-02-14_10h29.17.971,EP_task,2023.1.2,60.821516258809034,
57,8,1,0,None,None,0.0,1.0,2.0,1,0,64,64,64,0,0,0,0,,,,,,,,,,,,,,,,,,,,,,,,,,,1,1,None,,,,,,,,,,,,,,,,,,,1,1,1,2025-02-14_10h29.17.971,EP_task,2023.1.2,60.821516258809034,
57,8,1,0,None,None,0.0,1.0,2.0,1,0,64,64,64,,,,,0,0,0,0,,,,,,,,,,,,,,,,,,,,1,3.112722299993038,1062.2708546000067,1.0,1,,,1,1,2,1,,1056.5986396998633,0.059405399952083826,1059.1136396999937,1059.1136396999937,1059.1136396999937,1059.1136396999937,1059.1136396999937,1059.1136396999937,1059.1136396999937,1,1062.2708546000067,3.112722299993038,1,1,1,2025-02-14_10h29.17.971,EP_task,2023.1.2,60.821516258809034,
57,8,1,0,None,None,0.0,1.0,2.0,1,0,64,64,64,,,,,,,,,,,,,,,,,,,,,,,,,,,,,,,,,,,,,,,,,,,,,,,,,,,,1,1,1,2025-02-14_10h29.17.971,EP_task,2023.1.2,60.821516258809034,
57,8,1,0,None,None,1.0,1.0,3.0,4,0,65,65,65,0,0,0,0,,,,,,,,,,,,,,,,,,,,,,,,,,,1,1,None,,,,,,,,,,,,,,,,,,,1,1,1,2025-02-14_10h29.17.971,EP_task,2023.1.2,60.821516258809034,
57,8,1,0,None,None,1.0,1.0,3.0,4,0,65,65,65,,,,,0,0,0,0,,,,,,,,,,,,,,,,,,,,2,2.4378645999822766,1070.6377991999034,1.0,2,,,2,2,2,2,,1063.9617184998933,0.059401800157502294,1067.9785807000007,1067.9785807000007,1067.9785807000007,1067.9785807000007,1068.1541029000655,1067.9785807000007,1067.9785807000007,1,1070.6377991999034,2.4378645999822766,1,1,1,2025-02-14_10h29.17.971,EP_task,2023.1.2,60.821516258809034,
57,8,1,0,None,None,1.0,1.0,3.0,4,0,65,65,65,,,,,,,,,,,,,,,,,,,,,,,,,,,,,,,,,,,,,,,,,,,,,,,,,,,,1,1,1,2025-02-14_10h29.17.971,EP_task,2023.1.2,60.821516258809034,
58,9,0,1,0.0,0.0,None,None,None,2,0,66,66,66,0,0,0,0,,,,,,,,,,,,,,,,,1072.2469911000226,0.11279790010303259,1074.2411630998831,1074.2411630998831,1074.2411630998831,1074.2411630998831,1074.387919700006,1,2.2355498999822885,1076.6711355999578,1,2,1,2.2355498999822885,,,,,,,,,,,,,,,,,,1,1,1,2025-02-14_10h29.17.971,EP_task,2023.1.2,60.821516258809034,
58,9,0,1,0.0,0.0,None,None,None,2,0,66,66,66,,,,,0,0,0,0,,,,,,,,,,,,,,,,,,,,,,,None,1,,,2,2,2,None,,,,,,,,,,,,,,1,1,1,2025-02-14_10h29.17.971,EP_task,2023.1.2,60.821516258809034,
58,9,0,1,0.0,0.0,None,None,None,2,0,66,66,66,,,,,,,,,,,,,,,,,,,,,,,,,,,,,,,,,,,,,,,,,,,,,,,,,,,,1,1,1,2025-02-14_10h29.17.971,EP_task,2023.1.2,60.821516258809034,
59,9,0,1,0.0,1.0,None,None,None,1,0,67,67,67,0,0,0,0,,,,,,,,,,,,,,,,,1078.3543446999975,0.11862149997614324,1080.871104999911,1080.871104999911,1080.871104999911,1080.871104999911,1080.871104999911,1,1.4375959001481533,1082.3547391998582,3,1,1,1.4375959001481533,,,,,2,,,,,,,,,,,,,1,1,1,2025-02-14_10h29.17.971,EP_task,2023.1.2,60.821516258809034,
59,9,0,1,0.0,1.0,None,None,None,1,0,67,67,67,,,,,0,0,0,0,,,,,,,,,,,,,,,,,,,,,,,None,1,,,1,2,2,None,,,,,,,,,,,,,,1,1,1,2025-02-14_10h29.17.971,EP_task,2023.1.2,60.821516258809034,
59,9,0,1,0.0,1.0,None,None,None,1,0,67,67,67,,,,,,,,,,,,,,,,,,,,,,,,,,,,,,,,,,,,,,,,,,,,,,,,,,,,1,1,1,2025-02-14_10h29.17.971,EP_task,2023.1.2,60.821516258809034,
60,9,0,1,0.0,0.0,None,None,None,3,0,68,68,68,0,0,0,0,,,,,,,,,,,,,,,,,1084.0397944999859,0.12027329998090863,1088.5548284000251,1088.5548284000251,1088.5548284000251,1088.5548284000251,1088.5548284000251,2,2.9545971998013556,1091.5548167000525,1,1,2,2.9545971998013556,,,,,,,,,,,,,,,,,,1,1,1,2025-02-14_10h29.17.971,EP_task,2023.1.2,60.821516258809034,
60,9,0,1,0.0,0.0,None,None,None,3,0,68,68,68,,,,,0,0,0,0,,,,,,,,,,,,,,,,,,,,,,,None,1,,,1,2,2,None,,,,,,,,,,,,,,1,1,1,2025-02-14_10h29.17.971,EP_task,2023.1.2,60.821516258809034,
60,9,0,1,0.0,0.0,None,None,None,3,0,68,68,68,,,,,,,,,,,,,,,,,,,,,,,,,,,,,,,,,,,,,,,,,,,,,,,,,,,,1,1,1,2025-02-14_10h29.17.971,EP_task,2023.1.2,60.821516258809034,
61,9,0,1,0.0,0.0,None,None,None,3,0,69,69,69,0,0,0,0,,,,,,,,,,,,,,,,,1093.2265271998476,0.12139970017597079,1097.7217591998633,1097.7217591998633,1097.7217591998633,1097.7217591998633,1097.7217591998633,2,1.7808467999566346,1099.5382693998981,3,1,2,1.7808467999566346,,,,,,,,,,,,,,,,,,1,1,1,2025-02-14_10h29.17.971,EP_task,2023.1.2,60.821516258809034,
61,9,0,1,0.0,0.0,None,None,None,3,0,69,69,69,,,,,0,0,0,0,,,,,,,,,,,,,,,,,,,,,,,None,2,,,1,2,2,None,,,,,,,,,,,,,,1,1,1,2025-02-14_10h29.17.971,EP_task,2023.1.2,60.821516258809034,
61,9,0,1,0.0,0.0,None,None,None,3,0,69,69,69,,,,,,,,,,,,,,,,,,,,,,,,,,,,,,,,,,,,,,,,,,,,,,,,,,,,1,1,1,2025-02-14_10h29.17.971,EP_task,2023.1.2,60.821516258809034,
62,9,0,1,0.0,0.0,None,None,None,3,0,70,70,70,0,0,0,0,,,,,,,,,,,,,,,,,1101.225022800034,0.11813719989731908,1105.746214200044,1105.746214200044,1105.746214200044,1105.746214200044,1105.746214200044,1,2.2477268998045474,1108.03874800005,2,1,1,2.2477268998045474,,,,,,,,,,,,,,,,,,1,1,1,2025-02-14_10h29.17.971,EP_task,2023.1.2,60.821516258809034,
62,9,0,1,0.0,0.0,None,None,None,3,0,70,70,70,,,,,0,0,0,0,,,,,,,,,,,,,,,,,,,,,,,None,2,,,1,2,2,None,,,,,,,,,,,,,,1,1,1,2025-02-14_10h29.17.971,EP_task,2023.1.2,60.821516258809034,
62,9,0,1,0.0,0.0,None,None,None,3,0,70,70,70,,,,,,,,,,,,,,,,,,,,,,,,,,,,,,,,,,,,,,,,,,,,,,,,,,,,1,1,1,2025-02-14_10h29.17.971,EP_task,2023.1.2,60.821516258809034,
63,9,1,1,None,None,0.0,2.0,1.0,3,0,71,71,71,0,0,0,0,,,,,,,,,,,,,,,,,,,,,,,,,,,1,1,None,,,,,,,,,,,,,,,,,,,1,1,1,2025-02-14_10h29.17.971,EP_task,2023.1.2,60.821516258809034,
63,9,1,1,None,None,0.0,2.0,1.0,3,0,71,71,71,,,,,0,0,0,0,,,,,,,,,,,,,,,,,,,,2,2.730880100047216,1117.088995500002,2.0,1,,,1,1,3,2,,1109.795939499978,0.060170300072059035,1114.3124077999964,1114.3124077999964,1114.3124077999964,1114.3124077999964,1114.3124077999964,1114.3124077999964,1114.3124077999964,0,1117.088995500002,2.730880100047216,1,1,1,2025-02-14_10h29.17.971,EP_task,2023.1.2,60.821516258809034,
63,9,1,1,None,None,0.0,2.0,1.0,3,0,71,71,71,,,,,,,,,,,,,,,,,,,,,,,,,,,,,,,,,,,,,,,,,,,,,,,,,,,,1,1,1,2025-02-14_10h29.17.971,EP_task,2023.1.2,60.821516258809034,
63,9,1,1,None,None,1.0,2.0,3.0,3,0,72,72,72,0,0,0,0,,,,,,,,,,,,,,,,,,,,,,,,,,,1,2,None,,,,,,,,,,,,,,,,,,,1,1,1,2025-02-14_10h29.17.971,EP_task,2023.1.2,60.821516258809034,
63,9,1,1,None,None,1.0,2.0,3.0,3,0,72,72,72,,,,,0,0,0,0,,,,,,,,,,,,,,,,,,,,1,2.3669731998816133,1124.3722936999984,2.0,2,,,2,1,3,1,,1118.7719868998975,0.05952850007452071,1121.7761323000304,1121.7761323000304,1121.7761323000304,1121.7761323000304,1121.9724591998383,1121.7761323000304,1121.7761323000304,1,1124.3722936999984,2.3669731998816133,1,1,1,2025-02-14_10h29.17.971,EP_task,2023.1.2,60.821516258809034,
63,9,1,1,None,None,1.0,2.0,3.0,3,0,72,72,72,,,,,,,,,,,,,,,,,,,,,,,,,,,,,,,,,,,,,,,,,,,,,,,,,,,,1,1,1,2025-02-14_10h29.17.971,EP_task,2023.1.2,60.821516258809034,
64,10,0,1,0.0,0.0,None,None,None,2,0,73,73,73,0,0,0,0,,,,,,,,,,,,,,,,,1126.0115296998993,0.12401310005225241,1128.0258814999834,1128.0258814999834,1128.0258814999834,1128.0258814999834,1128.1389353999402,2,2.198898700065911,1130.3725192998536,1,2,2,2.198898700065911,,,,,,,,,,,,,,,,,,1,1,1,2025-02-14_10h29.17.971,EP_task,2023.1.2,60.821516258809034,
64,10,0,1,0.0,0.0,None,None,None,2,0,73,73,73,,,,,0,0,0,0,,,,,,,,,,,,,,,,,,,,,,,None,2,,,2,1,3,None,,,,,,,,,,,,,,1,1,1,2025-02-14_10h29.17.971,EP_task,2023.1.2,60.821516258809034,
64,10,0,1,0.0,0.0,None,None,None,2,0,73,73,73,,,,,,,,,,,,,,,,,,,,,,,,,,,,,,,,,,,,,,,,,,,,,,,,,,,,1,1,1,2025-02-14_10h29.17.971,EP_task,2023.1.2,60.821516258809034,
65,10,0,1,0.0,1.0,None,None,None,3,0,74,74,74,0,0,0,0,,,,,,,,,,,,,,,,,1132.0580758999567,0.11826639994978905,1136.5727911998983,1136.5727911998983,1136.5727911998983,1136.5727911998983,1136.5727911998983,1,0.9001879000570625,1137.5060842998791,2,2,1,0.9001879000570625,,,,,2,,,,,,,,,,,,,1,1,1,2025-02-14_10h29.17.971,EP_task,2023.1.2,60.821516258809034,
65,10,0,1,0.0,1.0,None,None,None,3,0,74,74,74,,,,,0,0,0,0,,,,,,,,,,,,,,,,,,,,,,,None,2,,,2,1,3,None,,,,,,,,,,,,,,1,1,1,2025-02-14_10h29.17.971,EP_task,2023.1.2,60.821516258809034,
65,10,0,1,0.0,1.0,None,None,None,3,0,74,74,74,,,,,,,,,,,,,,,,,,,,,,,,,,,,,,,,,,,,,,,,,,,,,,,,,,,,1,1,1,2025-02-14_10h29.17.971,EP_task,2023.1.2,60.821516258809034,
66,10,0,1,1.0,0.0,None,None,None,1,0,75,75,75,0,0,0,0,,,,,,,,,,,,,,,,,1139.1928677000105,0.11955399997532368,1141.706154400017,1141.706154400017,1141.706154400017,1141.706154400017,1141.706154400017,1,1.8365480999927968,1143.589414499933,3,2,1,1.8365480999927968,,,,,,,,,,,,,,,,,,1,1,1,2025-02-14_10h29.17.971,EP_task,2023.1.2,60.821516258809034,
66,10,0,1,1.0,0.0,None,None,None,1,0,75,75,75,,,,,0,0,0,0,,,,,,,,,,,,,,,,,,,,,,,None,2,,,2,1,3,None,,,,,,,,,,,,,,1,1,1,2025-02-14_10h29.17.971,EP_task,2023.1.2,60.821516258809034,
66,10,0,1,1.0,0.0,None,None,None,1,0,75,75,75,,,,,,,,,,,,,,,,,,,,,,,,,,,,,,,,,,,,,,,,,,,,,,,,,,,,1,1,1,2025-02-14_10h29.17.971,EP_task,2023.1.2,60.821516258809034,
67,10,0,1,0.0,0.0,None,None,None,2,0,76,76,76,0,0,0,0,,,,,,,,,,,,,,,,,1145.2753816000186,0.1181766998488456,1148.7896962000523,1148.7896962000523,1148.7896962000523,1148.7896962000523,1148.7896962000523,2,2.490209699841216,1151.3230844000354,1,1,2,2.490209699841216,,,,,,,,,,,,,,,,,,1,1,1,2025-02-14_10h29.17.971,EP_task,2023.1.2,60.821516258809034,
67,10,0,1,0.0,0.0,None,None,None,2,0,76,76,76,,,,,0,0,0,0,,,,,,,,,,,,,,,,,,,,,,,None,1,,,1,1,3,None,,,,,,,,,,,,,,1,1,1,2025-02-14_10h29.17.971,EP_task,2023.1.2,60.821516258809034,
67,10,0,1,0.0,0.0,None,None,None,2,0,76,76,76,,,,,,,,,,,,,,,,,,,,,,,,,,,,,,,,,,,,,,,,,,,,,,,,,,,,1,1,1,2025-02-14_10h29.17.971,EP_task,2023.1.2,60.821516258809034,
68,10,1,1,None,None,1.0,3.0,2.0,1,0,77,77,77,0,0,0,0,,,,,,,,,,,,,,,,,,,,,,,,,,,3,2,None,,,,,,,,,,,,,,,,,,,1,1,1,2025-02-14_10h29.17.971,EP_task,2023.1.2,60.821516258809034,
68,10,1,1,None,None,1.0,3.0,2.0,1,0,77,77,77,,,,,0,0,0,0,,,,,,,,,,,,,,,,,,,,,,,3.0,2,,,2,1,3,None,,1153.0502440000419,0.05920980009250343,1155.5517394999042,1155.5517394999042,1155.5517394999042,1155.5517394999042,1155.5517394999042,1155.5517394999042,1155.5517394999042,,,,1,1,1,2025-02-14_10h29.17.971,EP_task,2023.1.2,60.821516258809034,
68,10,1,1,None,None,1.0,3.0,2.0,1,0,77,77,77,,,,,1,0,1,0,,,,,,,,,,,,,,,,,,,,2,1.0550907999277115,1161.362415399868,3.0,2,,,2,1,1,2,,1159.0691279999446,0.06016400014050305,1160.070873199962,1160.070873199962,1160.070873199962,1160.070873199962,1160.2712029998656,1160.070873199962,1160.070873199962,0,1161.362415399868,1.0550907999277115,1,1,1,2025-02-14_10h29.17.971,EP_task,2023.1.2,60.821516258809034,
68,10,1,1,None,None,1.0,3.0,2.0,1,0,77,77,77,,,,,,,,,,,,,,,,,,,,,,,,,,,,,,,,,,,,,,,,,,,,,,,,,,,,1,1,1,2025-02-14_10h29.17.971,EP_task,2023.1.2,60.821516258809034,
68,10,1,1,None,None,0.0,3.0,1.0,2,0,78,78,78,0,0,0,0,,,,,,,,,,,,,,,,,,,,,,,,,,,3,1,None,,,,,,,,,,,,,,,,,,,1,1,1,2025-02-14_10h29.17.971,EP_task,2023.1.2,60.821516258809034,
68,10,1,1,None,None,0.0,3.0,1.0,2,0,78,78,78,,,,,0,0,0,0,,,,,,,,,,,,,,,,,,,,2,1.5741864000447094,1166.845410999842,3.0,2,,,2,2,1,2,,1163.0413042998407,0.06004569982178509,1165.0446874999907,1165.0446874999907,1165.0446874999907,1165.0446874999907,1165.2280798000284,1165.0446874999907,1165.0446874999907,1,1166.845410999842,1.5741864000447094,1,1,1,2025-02-14_10h29.17.971,EP_task,2023.1.2,60.821516258809034,
68,10,1,1,None,None,0.0,3.0,1.0,2,0,78,78,78,,,,,,,,,,,,,,,,,,,,,,,,,,,,,,,,,,,,,,,,,,,,,,,,,,,,1,1,1,2025-02-14_10h29.17.971,EP_task,2023.1.2,60.821516258809034,
69,11,0,1,0.0,0.0,None,None,None,2,0,79,79,79,0,0,0,0,,,,,,,,,,,,,,,,,1168.47687090002,0.11726119997911155,1170.4901773000602,1170.4901773000602,1170.4901773000602,1170.4901773000602,1170.6068609999493,1,2.0364171999972314,1172.6902784998529,3,2,1,2.0364171999972314,,,,,,,,,,,,,,,,,,1,1,1,2025-02-14_10h29.17.971,EP_task,2023.1.2,60.821516258809034,
69,11,0,1,0.0,0.0,None,None,None,2,0,79,79,79,,,,,0,0,0,0,,,,,,,,,,,,,,,,,,,,,,,None,1,,,2,2,1,None,,,,,,,,,,,,,,1,1,1,2025-02-14_10h29.17.971,EP_task,2023.1.2,60.821516258809034,
69,11,0,1,0.0,0.0,None,None,None,2,0,79,79,79,,,,,,,,,,,,,,,,,,,,,,,,,,,,,,,,,,,,,,,,,,,,,,,,,,,,1,1,1,2025-02-14_10h29.17.971,EP_task,2023.1.2,60.821516258809034,
70,11,0,1,0.0,0.0,None,None,None,2,0,80,80,80,0,0,0,0,,,,,,,,,,,,,,,,,1174.3543169000186,0.11383769987151027,1177.8483275000472,1177.8483275000472,1177.8483275000472,1177.8483275000472,1177.8483275000472,2,2.819007699843496,1180.7071262998506,2,2,2,2.819007699843496,,,,,,,,,,,,,,,,,,1,1,1,2025-02-14_10h29.17.971,EP_task,2023.1.2,60.821516258809034,
70,11,0,1,0.0,0.0,None,None,None,2,0,80,80,80,,,,,0,0,0,0,,,,,,,,,,,,,,,,,,,,,,,None,2,,,2,2,1,None,,,,,,,,,,,,,,1,1,1,2025-02-14_10h29.17.971,EP_task,2023.1.2,60.821516258809034,
70,11,0,1,0.0,0.0,None,None,None,2,0,80,80,80,,,,,,,,,,,,,,,,,,,,,,,,,,,,,,,,,,,,,,,,,,,,,,,,,,,,1,1,1,2025-02-14_10h29.17.971,EP_task,2023.1.2,60.821516258809034,
71,11,0,1,0.0,1.0,None,None,None,2,0,81,81,81,0,0,0,0,,,,,,,,,,,,,,,,,1182.3924489000347,0.11687520006671548,1185.9073454998434,1185.9073454998434,1185.9073454998434,1185.9073454998434,1185.9073454998434,1,1.2243473001290113,1187.1739312999416,1,2,1,1.2243473001290113,,,,,2,,,,,,,,,,,,,1,1,1,2025-02-14_10h29.17.971,EP_task,2023.1.2,60.821516258809034,
71,11,0,1,0.0,1.0,None,None,None,2,0,81,81,81,,,,,0,0,0,0,,,,,,,,,,,,,,,,,,,,,,,None,2,,,2,2,1,None,,,,,,,,,,,,,,1,1,1,2025-02-14_10h29.17.971,EP_task,2023.1.2,60.821516258809034,
71,11,0,1,0.0,1.0,None,None,None,2,0,81,81,81,,,,,,,,,,,,,,,,,,,,,,,,,,,,,,,,,,,,,,,,,,,,,,,,,,,,1,1,1,2025-02-14_10h29.17.971,EP_task,2023.1.2,60.821516258809034,
72,11,0,1,0.0,0.0,None,None,None,1,0,82,82,82,0,0,0,0,,,,,,,,,,,,,,,,,1188.863690200029,0.12054340005852282,1191.3776177999098,1191.3776177999098,1191.3776177999098,1191.3776177999098,1191.3776177999098,2,2.7051196999382228,1194.1239283999894,3,1,2,2.7051196999382228,,,,,,,,,,,,,,,,,,1,1,1,2025-02-14_10h29.17.971,EP_task,2023.1.2,60.821516258809034,
72,11,0,1,0.0,0.0,None,None,None,1,0,82,82,82,,,,,0,0,0,0,,,,,,,,,,,,,,,,,,,,,,,None,1,,,1,2,1,None,,,,,,,,,,,,,,1,1,1,2025-02-14_10h29.17.971,EP_task,2023.1.2,60.821516258809034,
72,11,0,1,0.0,0.0,None,None,None,1,0,82,82,82,,,,,,,,,,,,,,,,,,,,,,,,,,,,,,,,,,,,,,,,,,,,,,,,,,,,1,1,1,2025-02-14_10h29.17.971,EP_task,2023.1.2,60.821516258809034,
73,11,0,1,0.0,0.0,None,None,None,2,0,83,83,83,0,0,0,0,,,,,,,,,,,,,,,,,1195.812630899949,0.11971630016341805,1199.3242565998808,1199.3242565998808,1199.3242565998808,1199.3242565998808,1199.3242565998808,2,1.9680086001753807,1201.3409879999235,2,2,2,1.9680086001753807,,,,,,,,,,,,,,,,,,1,1,1,2025-02-14_10h29.17.971,EP_task,2023.1.2,60.821516258809034,
73,11,0,1,0.0,0.0,None,None,None,2,0,83,83,83,,,,,0,0,0,0,,,,,,,,,,,,,,,,,,,,,,,None,1,,,2,2,1,None,,,,,,,,,,,,,,1,1,1,2025-02-14_10h29.17.971,EP_task,2023.1.2,60.821516258809034,
73,11,0,1,0.0,0.0,None,None,None,2,0,83,83,83,,,,,,,,,,,,,,,,,,,,,,,,,,,,,,,,,,,,,,,,,,,,,,,,,,,,1,1,1,2025-02-14_10h29.17.971,EP_task,2023.1.2,60.821516258809034,
74,11,1,1,None,None,0.0,1.0,2.0,4,0,84,84,84,0,0,0,0,,,,,,,,,,,,,,,,,,,,,,,,,,,1,2,None,,,,,,,,,,,,,,,,,,,1,1,1,2025-02-14_10h29.17.971,EP_task,2023.1.2,60.821516258809034,
74,11,1,1,None,None,0.0,1.0,2.0,4,0,84,84,84,,,,,0,0,0,0,,,,,,,,,,,,,,,,,,,,,,,1.0,1,,,1,1,1,None,,1203.0726335998625,0.05976319988258183,1208.5863158998545,1208.5863158998545,1208.5863158998545,1208.5863158998545,1208.5863158998545,1208.5863158998545,1208.5863158998545,,,,1,1,1,2025-02-14_10h29.17.971,EP_task,2023.1.2,60.821516258809034,
74,11,1,1,None,None,0.0,1.0,2.0,4,0,84,84,84,,,,,1,0,1,0,,,,,,,,,,,,,,,,,,,,1,0.6683061001822352,1216.9964445999358,1.0,1,,,1,1,2,1,,1212.086836699862,0.06042989995330572,1216.0881970999762,1216.0881970999762,1216.0881970999762,1216.0881970999762,1216.279110299889,1216.0881970999762,1216.0881970999762,1,1216.9964445999358,0.6683061001822352,1,1,1,2025-02-14_10h29.17.971,EP_task,2023.1.2,60.821516258809034,
74,11,1,1,None,None,0.0,1.0,2.0,4,0,84,84,84,,,,,,,,,,,,,,,,,,,,,,,,,,,,,,,,,,,,,,,,,,,,,,,,,,,,1,1,1,2025-02-14_10h29.17.971,EP_task,2023.1.2,60.821516258809034,
74,11,1,1,None,None,1.0,1.0,3.0,2,0,85,85,85,0,0,0,0,,,,,,,,,,,,,,,,,,,,,,,,,,,1,2,None,,,,,,,,,,,,,,,,,,,1,1,1,2025-02-14_10h29.17.971,EP_task,2023.1.2,60.821516258809034,
74,11,1,1,None,None,1.0,1.0,3.0,2,0,85,85,85,,,,,0,0,0,0,,,,,,,,,,,,,,,,,,,,1,2.3374614000786096,1223.246870700037,1.0,1,,,2,1,3,1,,1218.674977199873,0.05977230006828904,1220.679944399977,1220.679944399977,1220.679944399977,1220.679944399977,1220.8629568000324,1220.679944399977,1220.679944399977,1,1223.246870700037,2.3374614000786096,1,1,1,2025-02-14_10h29.17.971,EP_task,2023.1.2,60.821516258809034,
74,11,1,1,None,None,1.0,1.0,3.0,2,0,85,85,85,,,,,,,,,,,,,,,,,,,,,,,,,,,,,,,,,,,,,,,,,,,,,,,,,,,,1,1,1,2025-02-14_10h29.17.971,EP_task,2023.1.2,60.821516258809034,
75,12,0,0,0.0,0.0,None,None,None,1,0,86,86,86,0,0,0,0,,,,,,,,,,,,,,,,,1224.8639121998567,0.11948090000078082,1225.8629459999502,1225.8629459999502,1225.8629459999502,1225.8629459999502,1225.9916955998633,1,2.693788999924436,1228.7248044000007,1,2,1,2.693788999924436,,,,,,,,,,,,,,,,,,1,1,1,2025-02-14_10h29.17.971,EP_task,2023.1.2,60.821516258809034,
75,12,0,0,0.0,0.0,None,None,None,1,0,86,86,86,,,,,0,0,0,0,,,,,,,,,,,,,,,,,,,,,,,None,1,,,2,1,3,None,,,,,,,,,,,,,,1,1,1,2025-02-14_10h29.17.971,EP_task,2023.1.2,60.821516258809034,
75,12,0,0,0.0,0.0,None,None,None,1,0,86,86,86,,,,,,,,,,,,,,,,,,,,,,,,,,,,,,,,,,,,,,,,,,,,,,,,,,,,1,1,1,2025-02-14_10h29.17.971,EP_task,2023.1.2,60.821516258809034,
76,12,0,0,1.0,0.0,None,None,None,2,0,87,87,87,0,0,0,0,,,,,,,,,,,,,,,,,1230.3929371000268,0.11630890006199479,1233.8864573999308,1233.8864573999308,1233.8864573999308,1233.8864573999308,1233.8864573999308,1,2.4901135999243706,1236.4251753999852,2,1,1,2.4901135999243706,,,,,,,,,,,,,,,,,,1,1,1,2025-02-14_10h29.17.971,EP_task,2023.1.2,60.821516258809034,
76,12,0,0,1.0,0.0,None,None,None,2,0,87,87,87,,,,,0,0,0,0,,,,,,,,,,,,,,,,,,,,,,,None,2,,,1,1,3,None,,,,,,,,,,,,,,1,1,1,2025-02-14_10h29.17.971,EP_task,2023.1.2,60.821516258809034,
76,12,0,0,1.0,0.0,None,None,None,2,0,87,87,87,,,,,,,,,,,,,,,,,,,,,,,,,,,,,,,,,,,,,,,,,,,,,,,,,,,,1,1,1,2025-02-14_10h29.17.971,EP_task,2023.1.2,60.821516258809034,
77,12,0,0,0.0,0.0,None,None,None,1,0,88,88,88,0,0,0,0,,,,,,,,,,,,,,,,,1238.114164199913,0.11954000010155141,1240.6252299000043,1240.6252299000043,1240.6252299000043,1240.6252299000043,1240.6252299000043,2,2.6069483999162912,1243.2754168999381,1,1,2,2.6069483999162912,,,,,,,,,,,,,,,,,,1,1,1,2025-02-14_10h29.17.971,EP_task,2023.1.2,60.821516258809034,
77,12,0,0,0.0,0.0,None,None,None,1,0,88,88,88,,,,,0,0,0,0,,,,,,,,,,,,,,,,,,,,,,,None,2,,,1,1,3,None,,,,,,,,,,,,,,1,1,1,2025-02-14_10h29.17.971,EP_task,2023.1.2,60.821516258809034,
77,12,0,0,0.0,0.0,None,None,None,1,0,88,88,88,,,,,,,,,,,,,,,,,,,,,,,,,,,,,,,,,,,,,,,,,,,,,,,,,,,,1,1,1,2025-02-14_10h29.17.971,EP_task,2023.1.2,60.821516258809034,
78,12,0,0,0.0,1.0,None,None,None,2,0,89,89,89,0,0,0,0,,,,,,,,,,,,,,,,,1244.9471944000106,0.11938980012200773,1248.4421860999428,1248.4421860999428,1248.4421860999428,1248.4421860999428,1248.4421860999428,1,1.63416439993307,1250.108961999882,2,1,1,1.63416439993307,,,,,2,,,,,,,,,,,,,1,1,1,2025-02-14_10h29.17.971,EP_task,2023.1.2,60.821516258809034,
78,12,0,0,0.0,1.0,None,None,None,2,0,89,89,89,,,,,0,0,0,0,,,,,,,,,,,,,,,,,,,,,,,None,1,,,1,1,3,None,,,,,,,,,,,,,,1,1,1,2025-02-14_10h29.17.971,EP_task,2023.1.2,60.821516258809034,
78,12,0,0,0.0,1.0,None,None,None,2,0,89,89,89,,,,,,,,,,,,,,,,,,,,,,,,,,,,,,,,,,,,,,,,,,,,,,,,,,,,1,1,1,2025-02-14_10h29.17.971,EP_task,2023.1.2,60.821516258809034,
79,12,0,0,0.0,0.0,None,None,None,4,0,90,90,90,0,0,0,0,,,,,,,,,,,,,,,,,1251.7954408999067,0.11927979998290539,1257.3190663999412,1257.3190663999412,1257.3190663999412,1257.3190663999412,1257.3190663999412,2,2.640631000045687,1259.9923113998957,3,1,2,2.640631000045687,,,,,,,,,,,,,,,,,,1,1,1,2025-02-14_10h29.17.971,EP_task,2023.1.2,60.821516258809034,
79,12,0,0,0.0,0.0,None,None,None,4,0,90,90,90,,,,,0,0,0,0,,,,,,,,,,,,,,,,,,,,,,,None,1,,,1,1,3,None,,,,,,,,,,,,,,1,1,1,2025-02-14_10h29.17.971,EP_task,2023.1.2,60.821516258809034,
79,12,0,0,0.0,0.0,None,None,None,4,0,90,90,90,,,,,,,,,,,,,,,,,,,,,,,,,,,,,,,,,,,,,,,,,,,,,,,,,,,,1,1,1,2025-02-14_10h29.17.971,EP_task,2023.1.2,60.821516258809034,
80,12,0,0,0.0,0.0,None,None,None,1,0,91,91,91,0,0,0,0,,,,,,,,,,,,,,,,,1261.6770927999169,0.11920409998856485,1264.1923749998678,1264.1923749998678,1264.1923749998678,1264.1923749998678,1264.1923749998678,1,2.1242108000442386,1266.359230400063,1,2,1,2.1242108000442386,,,,,,,,,,,,,,,,,,1,1,1,2025-02-14_10h29.17.971,EP_task,2023.1.2,60.821516258809034,
80,12,0,0,0.0,0.0,None,None,None,1,0,91,91,91,,,,,0,0,0,0,,,,,,,,,,,,,,,,,,,,,,,None,1,,,2,1,3,None,,,,,,,,,,,,,,1,1,1,2025-02-14_10h29.17.971,EP_task,2023.1.2,60.821516258809034,
80,12,0,0,0.0,0.0,None,None,None,1,0,91,91,91,,,,,,,,,,,,,,,,,,,,,,,,,,,,,,,,,,,,,,,,,,,,,,,,,,,,1,1,1,2025-02-14_10h29.17.971,EP_task,2023.1.2,60.821516258809034,
81,12,0,0,0.0,0.0,None,None,None,1,0,92,92,92,0,0,0,0,,,,,,,,,,,,,,,,,1268.0308222998865,0.1202476997859776,1270.5261080998462,1270.5261080998462,1270.5261080998462,1270.5261080998462,1270.5261080998462,2,2.4125258000567555,1272.976147199981,2,2,2,2.4125258000567555,,,,,,,,,,,,,,,,,,1,1,1,2025-02-14_10h29.17.971,EP_task,2023.1.2,60.821516258809034,
81,12,0,0,0.0,0.0,None,None,None,1,0,92,92,92,,,,,0,0,0,0,,,,,,,,,,,,,,,,,,,,,,,None,2,,,2,1,3,None,,,,,,,,,,,,,,1,1,1,2025-02-14_10h29.17.971,EP_task,2023.1.2,60.821516258809034,
81,12,0,0,0.0,0.0,None,None,None,1,0,92,92,92,,,,,,,,,,,,,,,,,,,,,,,,,,,,,,,,,,,,,,,,,,,,,,,,,,,,1,1,1,2025-02-14_10h29.17.971,EP_task,2023.1.2,60.821516258809034,
82,12,1,0,None,None,0.0,2.0,1.0,1,0,93,93,93,0,0,0,0,,,,,,,,,,,,,,,,,,,,,,,,,,,3,2,None,,,,,,,,,,,,,,,,,,,1,1,1,2025-02-14_10h29.17.971,EP_task,2023.1.2,60.821516258809034,
82,12,1,0,None,None,0.0,2.0,1.0,1,0,93,93,93,,,,,0,0,0,0,,,,,,,,,,,,,,,,,,,,2,1.6116751998197287,1278.859665099997,2.0,2,,,1,2,3,2,,1274.714545499999,0.05997529998421669,1277.2121770998929,1277.2121770998929,1277.2121770998929,1277.2121770998929,1277.2121770998929,1277.2121770998929,1277.2121770998929,1,1278.859665099997,1.6116751998197287,1,1,1,2025-02-14_10h29.17.971,EP_task,2023.1.2,60.821516258809034,
82,12,1,0,None,None,0.0,2.0,1.0,1,0,93,93,93,,,,,,,,,,,,,,,,,,,,,,,,,,,,,,,,,,,,,,,,,,,,,,,,,,,,1,1,1,2025-02-14_10h29.17.971,EP_task,2023.1.2,60.821516258809034,
82,12,1,0,None,None,1.0,2.0,3.0,5,0,94,94,94,0,0,0,0,,,,,,,,,,,,,,,,,,,,,,,,,,,3,1,None,,,,,,,,,,,,,,,,,,,1,1,1,2025-02-14_10h29.17.971,EP_task,2023.1.2,60.821516258809034,
82,12,1,0,None,None,1.0,2.0,3.0,5,0,94,94,94,,,,,0,0,0,0,,,,,,,,,,,,,,,,,,,,1,2.606892399955541,1288.3763514000457,2.0,1,,,2,1,3,1,,1280.5327848000452,0.059802399948239326,1285.5329042999074,1285.5329042999074,1285.5329042999074,1285.5329042999074,1285.7263272998389,1285.5329042999074,1285.5329042999074,1,1288.3763514000457,2.606892399955541,1,1,1,2025-02-14_10h29.17.971,EP_task,2023.1.2,60.821516258809034,
82,12,1,0,None,None,1.0,2.0,3.0,5,0,94,94,94,,,,,,,,,,,,,,,,,,,,,,,,,,,,,,,,,,,,,,,,,,,,,,,,,,,,1,1,1,2025-02-14_10h29.17.971,EP_task,2023.1.2,60.821516258809034,
83,13,0,0,0.0,0.0,None,None,None,3,0,95,95,95,0,0,0,0,,,,,,,,,,,,,,,,,1289.992464599898,0.1192430998198688,1292.9934402999934,1292.9934402999934,1292.9934402999934,1292.9934402999934,1293.126643900061,2,2.455823600059375,1295.6267361000646,3,1,2,2.455823600059375,,,,,,,,,,,,,,,,,,1,1,1,2025-02-14_10h29.17.971,EP_task,2023.1.2,60.821516258809034,
83,13,0,0,0.0,0.0,None,None,None,3,0,95,95,95,,,,,0,0,0,0,,,,,,,,,,,,,,,,,,,,,,,None,2,,,1,1,3,None,,,,,,,,,,,,,,1,1,1,2025-02-14_10h29.17.971,EP_task,2023.1.2,60.821516258809034,
83,13,0,0,0.0,0.0,None,None,None,3,0,95,95,95,,,,,,,,,,,,,,,,,,,,,,,,,,,,,,,,,,,,,,,,,,,,,,,,,,,,1,1,1,2025-02-14_10h29.17.971,EP_task,2023.1.2,60.821516258809034,
84,13,0,0,0.0,0.0,None,None,None,4,0,96,96,96,0,0,0,0,,,,,,,,,,,,,,,,,1297.308346600039,0.11506320000626147,1302.8176607000642,1302.8176607000642,1302.8176607000642,1302.8176607000642,1302.8176607000642,1,2.700325099984184,1305.5603193000425,1,2,1,2.700325099984184,,,,,,,,,,,,,,,,,,1,1,1,2025-02-14_10h29.17.971,EP_task,2023.1.2,60.821516258809034,
84,13,0,0,0.0,0.0,None,None,None,4,0,96,96,96,,,,,0,0,0,0,,,,,,,,,,,,,,,,,,,,,,,None,1,,,2,1,3,None,,,,,,,,,,,,,,1,1,1,2025-02-14_10h29.17.971,EP_task,2023.1.2,60.821516258809034,
84,13,0,0,0.0,0.0,None,None,None,4,0,96,96,96,,,,,,,,,,,,,,,,,,,,,,,,,,,,,,,,,,,,,,,,,,,,,,,,,,,,1,1,1,2025-02-14_10h29.17.971,EP_task,2023.1.2,60.821516258809034,
85,13,0,0,0.0,1.0,None,None,None,2,0,97,97,97,0,0,0,0,,,,,,,,,,,,,,,,,1307.2345308000222,0.12094459985382855,1310.7365732998587,1310.7365732998587,1310.7365732998587,1310.7365732998587,1310.7365732998587,1,1.8744391000363976,1312.6434555999003,2,2,1,1.8744391000363976,,,,,2,,,,,,,,,,,,,1,1,1,2025-02-14_10h29.17.971,EP_task,2023.1.2,60.821516258809034,
85,13,0,0,0.0,1.0,None,None,None,2,0,97,97,97,,,,,0,0,0,0,,,,,,,,,,,,,,,,,,,,,,,None,2,,,2,1,3,None,,,,,,,,,,,,,,1,1,1,2025-02-14_10h29.17.971,EP_task,2023.1.2,60.821516258809034,
85,13,0,0,0.0,1.0,None,None,None,2,0,97,97,97,,,,,,,,,,,,,,,,,,,,,,,,,,,,,,,,,,,,,,,,,,,,,,,,,,,,1,1,1,2025-02-14_10h29.17.971,EP_task,2023.1.2,60.821516258809034,
86,13,0,0,0.0,0.0,None,None,None,1,0,98,98,98,0,0,0,0,,,,,,,,,,,,,,,,,1314.3054352998734,0.113385200034827,1316.799157399917,1316.799157399917,1316.799157399917,1316.799157399917,1316.799157399917,2,2.221340699819848,1319.0606295999605,3,1,2,2.221340699819848,,,,,,,,,,,,,,,,,,1,1,1,2025-02-14_10h29.17.971,EP_task,2023.1.2,60.821516258809034,
86,13,0,0,0.0,0.0,None,None,None,1,0,98,98,98,,,,,0,0,0,0,,,,,,,,,,,,,,,,,,,,,,,None,2,,,1,1,3,None,,,,,,,,,,,,,,1,1,1,2025-02-14_10h29.17.971,EP_task,2023.1.2,60.821516258809034,
86,13,0,0,0.0,0.0,None,None,None,1,0,98,98,98,,,,,,,,,,,,,,,,,,,,,,,,,,,,,,,,,,,,,,,,,,,,,,,,,,,,1,1,1,2025-02-14_10h29.17.971,EP_task,2023.1.2,60.821516258809034,
87,13,0,0,0.0,0.0,None,None,None,1,0,99,99,99,0,0,0,0,,,,,,,,,,,,,,,,,1320.7288265000097,0.11913760006427765,1323.2272329998668,1323.2272329998668,1323.2272329998668,1323.2272329998668,1323.2272329998668,2,1.8788360999897122,1325.1441259998828,1,1,2,1.8788360999897122,,,,,,,,,,,,,,,,,,1,1,1,2025-02-14_10h29.17.971,EP_task,2023.1.2,60.821516258809034,
87,13,0,0,0.0,0.0,None,None,None,1,0,99,99,99,,,,,0,0,0,0,,,,,,,,,,,,,,,,,,,,,,,None,1,,,1,1,3,None,,,,,,,,,,,,,,1,1,1,2025-02-14_10h29.17.971,EP_task,2023.1.2,60.821516258809034,
87,13,0,0,0.0,0.0,None,None,None,1,0,99,99,99,,,,,,,,,,,,,,,,,,,,,,,,,,,,,,,,,,,,,,,,,,,,,,,,,,,,1,1,1,2025-02-14_10h29.17.971,EP_task,2023.1.2,60.821516258809034,
88,13,0,0,0.0,0.0,None,None,None,3,0,100,100,100,0,0,0,0,,,,,,,,,,,,,,,,,1326.8111936999485,0.1180449000094086,1331.3109550999943,1331.3109550999943,1331.3109550999943,1331.3109550999943,1331.3109550999943,2,2.0707644999492913,1333.4276467999443,2,1,2,2.0707644999492913,,,,,,,,,,,,,,,,,,1,1,1,2025-02-14_10h29.17.971,EP_task,2023.1.2,60.821516258809034,
88,13,0,0,0.0,0.0,None,None,None,3,0,100,100,100,,,,,0,0,0,0,,,,,,,,,,,,,,,,,,,,,,,None,2,,,1,1,3,None,,,,,,,,,,,,,,1,1,1,2025-02-14_10h29.17.971,EP_task,2023.1.2,60.821516258809034,
88,13,0,0,0.0,0.0,None,None,None,3,0,100,100,100,,,,,,,,,,,,,,,,,,,,,,,,,,,,,,,,,,,,,,,,,,,,,,,,,,,,1,1,1,2025-02-14_10h29.17.971,EP_task,2023.1.2,60.821516258809034,
89,13,1,0,None,None,0.0,3.0,1.0,5,0,101,101,101,0,0,0,0,,,,,,,,,,,,,,,,,,,,,,,,,,,3,1,None,,,,,,,,,,,,,,,,,,,1,1,1,2025-02-14_10h29.17.971,EP_task,2023.1.2,60.821516258809034,
89,13,1,0,None,None,0.0,3.0,1.0,5,0,101,101,101,,,,,0,0,0,0,,,,,,,,,,,,,,,,,,,,2,1.8095050000119954,1343.5112258999143,3.0,2,,,2,2,1,2,,1335.1607824999373,0.06348450016230345,1341.6610455999617,1341.6610455999617,1341.6610455999617,1341.6610455999617,1341.6610455999617,1341.6610455999617,1341.6610455999617,1,1343.5112258999143,1.8095050000119954,1,1,1,2025-02-14_10h29.17.971,EP_task,2023.1.2,60.821516258809034,
89,13,1,0,None,None,0.0,3.0,1.0,5,0,101,101,101,,,,,,,,,,,,,,,,,,,,,,,,,,,,,,,,,,,,,,,,,,,,,,,,,,,,1,1,1,2025-02-14_10h29.17.971,EP_task,2023.1.2,60.821516258809034,
89,13,1,0,None,None,1.0,3.0,2.0,5,0,102,102,102,0,0,0,0,,,,,,,,,,,,,,,,,,,,,,,,,,,3,1,None,,,,,,,,,,,,,,,,,,,1,1,1,2025-02-14_10h29.17.971,EP_task,2023.1.2,60.821516258809034,
89,13,1,0,None,None,1.0,3.0,2.0,5,0,102,102,102,,,,,0,0,0,0,,,,,,,,,,,,,,,,,,,,2,2.507414599880576,1352.9448466999456,3.0,2,,,2,2,1,2,,1345.2039969000034,0.05973870004527271,1350.2181631999556,1350.2181631999556,1350.2181631999556,1350.2181631999556,1350.3948478999082,1350.2181631999556,1350.2181631999556,1,1352.9448466999456,2.507414599880576,1,1,1,2025-02-14_10h29.17.971,EP_task,2023.1.2,60.821516258809034,
89,13,1,0,None,None,1.0,3.0,2.0,5,0,102,102,102,,,,,,,,,,,,,,,,,,,,,,,,,,,,,,,,,,,,,,,,,,,,,,,,,,,,1,1,1,2025-02-14_10h29.17.971,EP_task,2023.1.2,60.821516258809034,
90,14,0,0,0.0,0.0,None,None,None,3,0,103,103,103,0,0,0,0,,,,,,,,,,,,,,,,,1354.5797124998644,0.11955750011838973,1357.5916399999987,1357.5916399999987,1357.5916399999987,1357.5916399999987,1357.7116429000162,1,2.3318358999677002,1360.0784280998632,3,2,1,2.3318358999677002,,,,,,,,,,,,,,,,,,1,1,1,2025-02-14_10h29.17.971,EP_task,2023.1.2,60.821516258809034,
90,14,0,0,0.0,0.0,None,None,None,3,0,103,103,103,,,,,0,0,0,0,,,,,,,,,,,,,,,,,,,,,,,None,1,,,2,2,1,None,,,,,,,,,,,,,,1,1,1,2025-02-14_10h29.17.971,EP_task,2023.1.2,60.821516258809034,
90,14,0,0,0.0,0.0,None,None,None,3,0,103,103,103,,,,,,,,,,,,,,,,,,,,,,,,,,,,,,,,,,,,,,,,,,,,,,,,,,,,1,1,1,2025-02-14_10h29.17.971,EP_task,2023.1.2,60.821516258809034,
91,14,0,0,0.0,1.0,None,None,None,3,0,104,104,104,0,0,0,0,,,,,,,,,,,,,,,,,1361.7480969999451,0.11808439996093512,1366.250535900006,1366.250535900006,1366.250535900006,1366.250535900006,1366.250535900006,2,2.046984799904749,1368.345081300009,1,2,2,2.046984799904749,,,,,1,,,,,,,,,,,,,1,1,1,2025-02-14_10h29.17.971,EP_task,2023.1.2,60.821516258809034,
91,14,0,0,0.0,1.0,None,None,None,3,0,104,104,104,,,,,0,0,0,0,,,,,,,,,,,,,,,,,,,,,,,None,1,,,2,2,1,None,,,,,,,,,,,,,,1,1,1,2025-02-14_10h29.17.971,EP_task,2023.1.2,60.821516258809034,
91,14,0,0,0.0,1.0,None,None,None,3,0,104,104,104,,,,,,,,,,,,,,,,,,,,,,,,,,,,,,,,,,,,,,,,,,,,,,,,,,,,1,1,1,2025-02-14_10h29.17.971,EP_task,2023.1.2,60.821516258809034,
92,14,0,0,0.0,0.0,None,None,None,2,0,105,105,105,0,0,0,0,,,,,,,,,,,,,,,,,1370.0148137998767,0.11976859997957945,1373.511965799844,1373.511965799844,1373.511965799844,1373.511965799844,1373.511965799844,2,2.485520099988207,1376.045232299948,2,2,2,2.485520099988207,,,,,,,,,,,,,,,,,,1,1,1,2025-02-14_10h29.17.971,EP_task,2023.1.2,60.821516258809034,
92,14,0,0,0.0,0.0,None,None,None,2,0,105,105,105,,,,,0,0,0,0,,,,,,,,,,,,,,,,,,,,,,,None,1,,,2,2,1,None,,,,,,,,,,,,,,1,1,1,2025-02-14_10h29.17.971,EP_task,2023.1.2,60.821516258809034,
92,14,0,0,0.0,0.0,None,None,None,2,0,105,105,105,,,,,,,,,,,,,,,,,,,,,,,,,,,,,,,,,,,,,,,,,,,,,,,,,,,,1,1,1,2025-02-14_10h29.17.971,EP_task,2023.1.2,60.821516258809034,
93,14,0,0,0.0,0.0,None,None,None,1,0,106,106,106,0,0,0,0,,,,,,,,,,,,,,,,,1377.7308224998415,0.11943379999138415,1380.2455267000478,1380.2455267000478,1380.2455267000478,1380.2455267000478,1380.2455267000478,1,1.8450178001075983,1382.128882699879,3,2,1,1.8450178001075983,,,,,,,,,,,,,,,,,,1,1,1,2025-02-14_10h29.17.971,EP_task,2023.1.2,60.821516258809034,
93,14,0,0,0.0,0.0,None,None,None,1,0,106,106,106,,,,,0,0,0,0,,,,,,,,,,,,,,,,,,,,,,,None,2,,,2,2,1,None,,,,,,,,,,,,,,1,1,1,2025-02-14_10h29.17.971,EP_task,2023.1.2,60.821516258809034,
93,14,0,0,0.0,0.0,None,None,None,1,0,106,106,106,,,,,,,,,,,,,,,,,,,,,,,,,,,,,,,,,,,,,,,,,,,,,,,,,,,,1,1,1,2025-02-14_10h29.17.971,EP_task,2023.1.2,60.821516258809034,
94,14,0,0,0.0,0.0,None,None,None,3,0,107,107,107,0,0,0,0,,,,,,,,,,,,,,,,,1383.8139675999992,0.11796679999679327,1388.3289610999636,1388.3289610999636,1388.3289610999636,1388.3289610999636,1388.3289610999636,1,1.7877208001445979,1390.1622234999668,1,2,1,1.7877208001445979,,,,,,,,,,,,,,,,,,1,1,1,2025-02-14_10h29.17.971,EP_task,2023.1.2,60.821516258809034,
94,14,0,0,0.0,0.0,None,None,None,3,0,107,107,107,,,,,0,0,0,0,,,,,,,,,,,,,,,,,,,,,,,None,2,,,2,2,1,None,,,,,,,,,,,,,,1,1,1,2025-02-14_10h29.17.971,EP_task,2023.1.2,60.821516258809034,
94,14,0,0,0.0,0.0,None,None,None,3,0,107,107,107,,,,,,,,,,,,,,,,,,,,,,,,,,,,,,,,,,,,,,,,,,,,,,,,,,,,1,1,1,2025-02-14_10h29.17.971,EP_task,2023.1.2,60.821516258809034,
95,14,0,0,0.0,0.0,None,None,None,3,0,108,108,108,0,0,0,0,,,,,,,,,,,,,,,,,1391.8463105000556,0.11804440012201667,1396.3626255998388,1396.3626255998388,1396.3626255998388,1396.3626255998388,1396.3626255998388,2,2.306969900149852,1398.7126857000403,2,2,2,2.306969900149852,,,,,,,,,,,,,,,,,,1,1,1,2025-02-14_10h29.17.971,EP_task,2023.1.2,60.821516258809034,
95,14,0,0,0.0,0.0,None,None,None,3,0,108,108,108,,,,,0,0,0,0,,,,,,,,,,,,,,,,,,,,,,,None,1,,,2,2,1,None,,,,,,,,,,,,,,1,1,1,2025-02-14_10h29.17.971,EP_task,2023.1.2,60.821516258809034,
95,14,0,0,0.0,0.0,None,None,None,3,0,108,108,108,,,,,,,,,,,,,,,,,,,,,,,,,,,,,,,,,,,,,,,,,,,,,,,,,,,,1,1,1,2025-02-14_10h29.17.971,EP_task,2023.1.2,60.821516258809034,
,,,,,,,,,,,,,,,,,,,,,,,,,,,,,,,,,,1400.3963198999409,0.11778229987248778,1405.9125369999092,1405.9125369999092,1405.9125369999092,1405.9125369999092,1405.9125369999092,1,2.7585008000023663,1408.7129098000005,,,,,,,,,,,,,,,,,,,,,,,,,,,,,
